File: app/.ipynb_checkpoints/data-checkpoint.csv
MA,FA,Cs,Pb,Sn,Other,I,Br,Gap,Po,ETL,HTL,Ne,Area,Add_O,Add_I,Add_H,Passivation,Step,Solvent,Coated1_v,Coated1_t,Coated2_v,Coated2_t,antisolvent,Anneal_T,Anneal_t,Jsc,Voc,FF,PCE
1,0,0,1,0,0,1,0,0.61597,1,1,1,0.666667,0.05,0,0,0,1,0.5,0.75,0.5,0.222222,0,0,0.115,0.285714,0.0222222,21.15,1.028,0.783,12.02
0,1,0,1,0,0,1,0,0.570342,0,0.333333,0.333333,0.666667,0.228571,1,0,1,1,0.5,1,0.375,0.222222,0,0,0.5,0.357143,0.222222,25.91,1.165,0.831,25.09
0,0,1,1,0,0,0.666667,0.333333,0.722433,0,0.333333,0.333333,1,0.05,0,1,0,1,0.5,0.75,0.35,0.277778,0,0,0,0.428571,0.0555556,13.34,1.05,0.62,8.7
1,0,0,0,1,0,0.333333,0.666667,0.665399,0,0.333333,0.333333,0.333333,0.0714286,0,0,0,0,0.5,0.25,0.5,0.5,0,0,0,0.357143,0.333333,12.3,0.82,0.57,5.73
0.15,0.85,0,1,0,0,0.85,0.15,0.551331,0,0.333333,0.333333,0.333333,0.0504286,0,0,0,0,1,0.5,0.625,0.5,0.833333,0.5,0,0.285714,0.666667,23.08,1.07,0.62,15.46
0,1,0,0,1,0,1,0,0.543726,1,1,0.666667,1,0.0285714,1,1,1,1,0.5,0.75,1,0.666667,0,0,0.12,0.228571,0.111111,24.91,0.84,0.7076,14.81
0.952,0.048,0,1,0,0,0.968,0.032,0.61597,1,0.666667,0.333333,0.333333,0.0857143,1,0,1,0,1,0.75,0.125,0.0555556,0.666667,0.2,0.04,0.385714,0.0333333,24.07,1.131,0.768,20.93
0.904,0.096,0,1,0,0,0.936,0.064,0.619772,1,0.666667,0.333333,0.333333,0.0857143,1,0,1,0,1,0.75,0.125,0.0555556,0.666667,0.2,0.04,0.385714,0.0333333,23.32,1.06,0.713,17.67
0.15,0.85,0,1,0,0,0.85,0.15,0.608745,0,0.333333,0.333333,0.333333,0.114286,1,0,0,1,0.5,0.75,0.75,0.333333,0,0,0.1,0.285714,0.666667,22.89,1.123,0.756,19.43
0,1,0,1,0,0,1,0,0.587452,0,0.666667,0.333333,0.333333,0.0857143,1,1,0,1,1,1,0.0375,0.111111,0.666667,0.5,0.2,0.428571,0.111111,23.83,1.05,0.715,17.89
0,1,0,1,0,0,1,0,0.585551,1,0.666667,0.333333,0.333333,0.0642857,1,0,1,0,0.5,0.25,0.5,0.333333,0,0,0,0.428571,0.111111,24.9,1.13,0.75,21.18
0.17,0.83,0,1,0,0,0.83,0.17,0.608365,1,0.666667,0.333333,0.333333,0.0857143,0,0,0,0,0.5,0.75,0.75,0.333333,0,0,0.07,0.285714,0.555556,23.23,1.18,0.7335,20.54
0,1,0,0,1,0,1,0,0.536122,0,0.333333,0.333333,0.333333,0.114286,1,0,0,1,1,0.75,0.125,0.111111,0.833333,0.833333,1,0.171429,0.666667,23.7,0.28,0.55,4.8
1,0,0,1,0,0,1,0,0.570342,1,1,0.333333,0.666667,0.0607143,0,0,0,0,0.5,0.75,0.5,0.0666667,0,0,0,0.285714,0.111111,22.74,1.17,0.731,19.46
1,0,0,0.9,0.05,0.05,0.966667,0.0333333,0.60076,0,0.333333,0.333333,0.666667,0.0642857,1,0,0,1,1,1,0.125,0.222222,0.666667,0.666667,0,0.285714,0.111111,23.97,1.08,0.81,21.08
1,0,0,0.75,0.25,0,0.6,0.4,0.657795,1,1,0.666667,0.666667,0.0714286,0,0,0,1,1,1,0.125,0.166667,0.666667,0.75,0.7,0.285714,0.111111,17.25,0.91,0.76,11.93
0.25,0.75,0,0,0.95,0.5,1,0,0.532319,1,1,0.666667,0.333333,0.075,0,1,0,0,0.5,0.25,0.625,0.555556,0,0,0.434146,0.2,0.111111,19.5,0.42,0.55,4.48
1,0,0,0,1,0,0.333333,0.666667,0.665399,0,0.333333,0.333333,0.333333,0.0714286,0,0,0,0,0.5,0.25,0.5,0.5,0,0,0,0.357143,0.333333,12.3,0.82,0.57,5.73
0,0,1,0.96,0.04,0,1,0,0.593156,0,0.333333,1,0.333333,0.0642857,0,1,1,0,1,0.75,0.1,0.111111,0.583333,0.583333,0,0.285714,0.166667,18.76,0.97,0.7259,13.21
0,0,1,0.96,0.04,0,1,0,0.676806,0,0.333333,0,1,0.0446429,0,0,0,0,0.5,0.5,0.25,0.333333,0,0,0,0.314286,0.111111,14.65,0.73,0.5,5.31
0.16,0.79,0.05,0.832,0.168,0,0.826667,0.173333,0.558935,1,1,0.666667,0.666667,0.0285714,0,0,0,0,0.5,0.75,0.625,0.444444,0,0,0,0.285714,0.333333,24.79,0.71,0.7218,12.65
0.16,0.79,0.05,0.664,0.336,0,0.826667,0.173333,0.524715,1,1,0.666667,0.666667,0.0285714,0,0,0,0,0.5,0.75,0.625,0.444444,0,0,0,0.285714,0.333333,26.45,0.79,0.7545,15.76
0,0,1,1,0,0,0,1,0.874525,0,0.333333,0,1,0.0857143,0,0,0,0,0.5,0.25,0.125,0.333333,0,0,0,0.714286,0.0555556,7.7,1.14,0.52,4.6
0,0,1,0.8,0,0.2,0,1,0.844106,0,0.333333,0,1,0.0642857,0,0,0,1,1,0.25,0.25,0.333333,0.333333,0.5,0,0.714286,0.0555556,7.44,1.508,0.745,8.36
0,0,1,1,0,0,0,1,0.882129,0,0.333333,0,1,0.0642857,0,0,0,0,1,0.25,0.25,0.333333,0.333333,0.5,0,0.714286,0.0555556,6.89,1.37,0.768,7.25
0,0,1,1,0,0,0.666667,0.333333,0.722433,0,0.333333,1,0.333333,0.113571,0,0,0,0,1,0.75,0.125,0.111111,0.666667,0.5,0,0.285714,0.0555556,13.4,0.962,0.598,7.7
0,0,1,1,0,0,0.333333,0.666667,0.790875,0,1,1,0.333333,0.0642857,0,0,0,0,0.5,0.5,0.3125,0.333333,0,0,0,0.457143,0.222222,10.56,0.85,0.62,5.52
0,0,1,1,0,0,0.666667,0.333333,0.718631,0,0.333333,0.333333,0.333333,0.114286,0,0,0,0,1,0.5,0.125,0.111111,0.5,0.5,0,0.8,0.111111,12.57,1.12,0.725,10.21
0,0.85,0.15,1,0,0,1,0,0.581749,0,0.333333,0.333333,0.666667,0.0892857,0,0,0,0,0.5,0.75,0.5,0.333333,0,0,0.5,0.428571,0.0555556,20.6,0.98,0.667,13.5
0,1,0,1,0,0,1,0,0.574144,0,0.333333,0.333333,0.666667,0.0892857,0,0,0,0,0.5,0.75,0.5,0.333333,0,0,0.5,0.428571,0.0555556,22.3,1,0.693,15.4
0,1,0,1,0,0,1,0,0.574144,0,0.333333,0.333333,0.666667,0.0892857,0,0,0,0,0.5,0.75,0.5,0.333333,0,0,0.5,0.428571,0.0555556,22.7,1.02,0.71,16.5
0,1,0,1,0,0,1,0,0.574144,0,0.333333,0.333333,0.666667,0.0892857,0,0,0,0,0.5,0.75,0.5,0.333333,0,0,0.5,0.428571,0.0555556,23.1,1.05,0.69,16.7
0,1,0,1,0,0,1,0,0.574144,0,0.333333,0.333333,0.666667,0.0892857,0,0,0,0,0.5,0.75,0.5,0.333333,0,0,0.5,0.428571,0.0555556,22.1,1,0.683,15.1
0,0,1,0.975,0,0.025,1,0,0.636122,0,0.333333,0.333333,0.333333,0.0642857,0,0,0,0,0.5,0.75,0.1875,0.111111,0.666667,0.5,0,0.514286,0.1,20.35,1.127,0.805,18.45
0,0,1,0.925,0,0.075,1,0,0.645627,0,0.333333,0.333333,0.333333,0.0642857,0,0,0,0,0.5,0.75,0.1875,0.111111,0.666667,0.5,0,0.514286,0.1,20.03,1.108,0.618,13.72
0.17,0.73,0.1,1,0,0,0.83,0.17,0.619772,0,0.333333,0.333333,0.333333,0.114286,0,1,1,0,1,0.75,0.125,0.111111,1,0.333333,0.01,0.285714,0.666667,21.9,1.12,0.76,18.6
0.2,0.75,0.05,1,0,0,0.83,0.17,0.619772,0,0.333333,0.333333,0.333333,0.114286,0,1,1,0,1,0.75,0.125,0.111111,1,0.333333,0.01,0.285714,0.666667,17.9,0.913,0.52,8.5
0.12,0.83,0.05,1,0,0,0.83,0.17,0.619772,0,0.333333,0.333333,0.333333,0.114286,0,1,1,0,1,0.75,0.125,0.111111,1,0.333333,0.01,0.285714,0.666667,20.3,1.092,0.7,15.5
0,0.83,0.17,1,0,0,0.6,0.4,0.661597,0,0.666667,0.333333,0.333333,0.0656429,0,0,0,0,0.5,0.25,0.25,0.5,0,0,0,0.528571,1,19.9,1.1,0.707,15.1
0.2,0.8,0,0.5,0.5,0,1,0,0.479087,1,1,1,0.666667,0.075,0,1,1,1,0.5,0.5,0.125,0.111111,0.833333,0.5,0,0.285714,0.0777778,30.9,0.77,0.633,15.2
0,0,1,1,0,0,0.666667,0.333333,0.730038,0,0.333333,0.333333,0.333333,0.107143,0,0,0,0,0.5,0.25,0.1875,0.444444,0,0,0,0.8,0.111111,10.83,1.13,0.71,8.5
0,0,1,1,0,0,0.666667,0.333333,0.730038,0,0.333333,0.333333,0.333333,0.107143,0,0,0,0,0.5,0.25,0.1875,0.444444,0,0,0,0.8,0.111111,10.55,1.09,0.7,8
0,0,1,1,0,0,0.666667,0.333333,0.730038,0,0.333333,0.333333,0.333333,0.107143,0,0,0,0,0.5,0.25,0.1875,0.444444,0,0,0,0.8,0.111111,8.73,1.16,0.6,6.1
0,0,1,1,0,0,0.666667,0.333333,0.730038,0,0.333333,0.333333,0.333333,0.107143,0,0,0,0,0.5,0.25,0.1875,0.444444,0,0,0,0.8,0.111111,9.3,1.21,0.72,8.1
0,0,1,1,0,0,0.333333,0.666667,0.779468,0,0.333333,1,1,0.0507143,0,0,0,0,0.5,0.5,0.1875,0.222222,0.833333,1,0,0.8,0.111111,9.32,1.15,0.69,7.41
1,0,0,1,0,0,1,0,0.596958,0,0.333333,0.333333,0.333333,0.0507143,0,0,0,0,1,1,0.125,0.111111,0.5,0.25,0,0.285714,0.111111,15.61,0.863,0.655,8.82
1,0,0,1,0,0,1,0,0.596958,0,0.333333,0.333333,0.333333,0.0507143,0,0,0,0,1,1,0.125,0.111111,0.5,0.25,0,0.285714,0.111111,17.2,0.811,0.612,8.54
1,0,0,1,0,0,1,0,0.593156,0,0.333333,0.333333,0.333333,0.0507143,1,0,0,1,1,1,0.125,0.111111,0.5,0.25,0,0.285714,0.111111,18.96,1.03,0.72,14.04
1,0,0,1,0,0,1,0,0.593156,0,0.333333,0.333333,0.333333,0.0507143,1,0,0,1,1,1,0.125,0.111111,0.5,0.25,0,0.285714,0.111111,21.14,0.993,0.75,15.75
0,0,1,1,0,0,0.666667,0.333333,0.726236,0,0.333333,1,0.333333,0.0642857,0,0,0,0,1,0.75,0.125,0.111111,0.5,0.5,0,0.8,0.111111,15.3,1.2,0.7,12.85
0,0,1,1,0,0,0.666667,0.333333,0.730038,0,0.333333,1,0.333333,0.0642857,0,0,0,0,1,0.75,0.125,0.111111,0.5,0.5,0,0.8,0.111111,14.98,1.289,0.75,14.48
1,0,0,1,0,0,0.58,0.42,0.680608,0,0.333333,0.333333,0.333333,0.142857,0,0,0,0,0.5,0.25,0.75,0.0555556,0,0,0,0.2,0.333333,8.2,0.898,0.6584,4.63
0,0,1,1,0,0,1,0,0.657795,0,0.333333,1,0.333333,0.0642857,1,1,1,1,0.5,0.75,0.5,0.333333,0,0,0,0.857143,0.111111,14.72,1.211,0.788,14.05
0,0,1,1,0,0,1,0,0.657795,0,0.333333,1,0.333333,0.0642857,1,1,1,1,0.5,0.75,0.5,0.333333,0,0,0,0.857143,0.111111,14.57,1.215,0.789,13.96
0,0,1,1,0,0,0.666667,0.333333,0.730038,0,0.333333,0.333333,0.333333,0.05,0,0,0,0,0.5,0.25,0.1875,0.444444,0,0,0,0.8,0.0222222,10.8,1.18,0.69,8.8
0,0,1,1,0,0,0.666667,0.333333,0.730038,0,0.333333,0.333333,0.333333,0.05,0,0,0,0,0.5,0.25,0.1875,0.444444,0,0,0,0.8,0.0222222,9.8,1.2,0.74,8.7
0,0,1,1,0,0,0.666667,0.333333,0.730038,0,0.333333,0.333333,0.333333,0.05,0,0,0,0,0.5,0.25,0.1875,0.444444,0,0,0,0.8,0.0222222,10.1,1.22,0.73,9
0,0,1,1,0,0,0.666667,0.333333,0.730038,0,0.333333,0.333333,0.333333,0.05,0,0,0,0,0.5,0.25,0.1875,0.444444,0,0,0,0.8,0.0222222,11.9,1.23,0.72,10.5
0,0,1,1,0,0,0.666667,0.333333,0.730038,0,0.333333,0.333333,0.333333,0.05,0,0,0,0,0.5,0.25,0.1875,0.444444,0,0,0,0.8,0.0222222,11.4,1.2,0.69,9.4
0,0,1,1,0,0,0.666667,0.333333,0.730038,0,0.333333,0.333333,0.333333,0.05,0,0,0,0,0.5,0.25,0.1875,0.444444,0,0,0,0.8,0.0222222,12,1.21,0.67,9.8
0,0,1,1,0,0,0.666667,0.333333,0.722433,0,0.666667,0.333333,0.333333,0.0714286,0,0,0,0,0.5,0.75,0.375,0.277778,0,0,0.5,0.457143,0.111111,9.06,1.02,0.572,5.3
0,0,1,1,0,0,0.666667,0.333333,0.726236,0,0.666667,0.333333,0.666667,0.0857143,0,0,0,0,0.5,0.75,0.625,0.333333,0,0,0,0.8,0.0666667,12.2,1.183,0.67,9.67
0,0,1,1,0,0,0.666667,0.333333,0.726236,0,0.666667,0.333333,0.666667,0.0857143,0,0,0,0,0.5,0.75,0.625,0.333333,0,0,0,0.8,0.0666667,12.01,1.175,0.73,10.3
0,0,1,1,0,0,0.666667,0.333333,0.726236,0,0.666667,0.333333,0.666667,0.0857143,0,0,0,1,0.5,0.75,0.625,0.333333,0,0,0,0.8,0.0666667,11.98,1.256,0.77,11.59
0,0,1,1,0,0,0.666667,0.333333,0.726236,0,0.666667,0.333333,0.666667,0.0857143,0,0,0,1,0.5,0.75,0.625,0.333333,0,0,0,0.8,0.0666667,12.01,1.282,0.75,11.55
0,0,1,1,0,0,0.666667,0.333333,0.726236,0,0.333333,0.333333,0.666667,0.0857143,0,0,0,0,0.5,0.75,0.625,0.333333,0,0,0,0.8,0.0666667,13.06,1.246,0.75,12.2
0,0,1,1,0,0,0.666667,0.333333,0.726236,0,0.333333,0.333333,0.666667,0.0857143,0,0,0,0,0.5,0.75,0.625,0.333333,0,0,0,0.8,0.0666667,12.93,1.225,0.75,11.88
0,0,1,1,0,0,0.666667,0.333333,0.726236,0,0.333333,0.333333,0.666667,0.0857143,0,0,0,0,0.5,0.75,0.625,0.333333,0,0,0,0.8,0.0666667,12.99,1.235,0.72,11.55
0,0,1,1,0,0,0.666667,0.333333,0.726236,0,0.333333,0.333333,0.666667,0.0857143,0,0,0,0,0.5,0.75,0.625,0.333333,0,0,0,0.8,0.0666667,12.54,1.217,0.73,11.13
0,0,1,1,0,0,0.666667,0.333333,0.726236,0,0.333333,0.333333,0.666667,0.0857143,0,0,0,0,0.5,0.75,0.625,0.333333,0,0,0,0.8,0.0666667,13.44,1.22,0.66,10.78
0,0,1,1,0,0,0.666667,0.333333,0.726236,0,0.333333,0.333333,0.666667,0.0857143,0,0,0,0,0.5,0.75,0.625,0.333333,0,0,0,0.8,0.0666667,12.7,1.23,0.67,10.4
0,0,1,1,0,0,0.666667,0.333333,0.726236,0,0.333333,0.333333,0.666667,0.0857143,0,0,0,0,0.5,0.75,0.625,0.333333,0,0,0,0.8,0.0666667,10.17,1.315,0.7,9.38
0,0,1,1,0,0,0.666667,0.333333,0.726236,0,0.666667,0.333333,0.666667,0.0857143,0,0,0,0,0.5,0.75,0.625,0.333333,0,0,0,0.8,0.0666667,11.64,1.283,0.79,11.8
0,1,0,0,1,0,1,0,0.547529,1,1,0.666667,0.666667,0.0160714,1,0,1,1,0.5,0.5,0.625,1,0,0,0.8,0.2,0.111111,20,0.474,0.648,6.1
0,1,0,0,1,0,1,0,0.547529,1,1,0.666667,0.666667,0.0160714,1,0,1,1,0.5,0.5,0.625,1,0,0,0.8,0.2,0.111111,20.8,0.481,0.632,6.3
0,1,0,0,1,0,1,0,0.547529,1,1,0.666667,0.666667,0.0160714,1,0,1,1,0.5,0.5,0.625,1,0,0,0.8,0.2,0.111111,19.7,0.49,0.648,6.2
0,1,0,0,1,0,1,0,0.547529,1,1,0.666667,0.666667,0.0160714,1,0,1,1,0.5,0.5,0.625,1,0,0,0.8,0.2,0.111111,21.3,0.476,0.612,6.2
0,1,0,0,1,0,1,0,0.547529,1,1,0.666667,0.666667,0.0160714,1,0,1,1,0.5,0.5,0.625,1,0,0,0.8,0.2,0.111111,19,0.545,0.61,6.3
0,0.95,0.05,1,0,0,1,0,0.58327,0,0.666667,0.333333,0.333333,0.0571429,0,0,0,0,0.5,0.75,0.5,0.666667,0,0,0.75,0.428571,0.111111,21.66,0.94,0.6337,12.94
0,0.85,0.15,1,0,0,1,0,0.595057,0,0.666667,0.333333,0.333333,0.0571429,0,0,0,0,0.5,0.75,0.5,0.666667,0,0,0.75,0.285714,0.111111,21.51,0.98,0.6439,13.55
0,0.7,0.3,1,0,0,1,0,0.601521,0,0.666667,0.333333,0.333333,0.0571429,0,0,0,0,0.5,0.75,0.5,0.666667,0,0,0.75,0.285714,0.111111,20.33,1.03,0.7248,15.21
1,0,0,1,0,0,1,0,0.614068,0,0.333333,0.333333,0.333333,0.0785714,0,0,0,0,0.5,0.25,0.625,0.333333,0,0,0,0,0,18.17,0.82,0.3329,4.74
0,0,1,1,0,0,0,1,0.878327,0,0.333333,0,1,0.0642857,0,0,0,0,0,0.75,0.25,0.333333,0,0,0,0.714286,0.0555556,5.38,1.29,0.71,4.92
0,0,1,1,0,0,0,1,0.878327,0,0.333333,0,1,0.0642857,0,0,0,0,0.5,0.75,0.25,0.333333,0,0,0,0.714286,0.0555556,5.91,1.31,0.77,5.94
1,0,0,0.75,0.25,0,1,0,0.448669,0,1,0.666667,0.666667,0.0642857,0,0,0,1,1,0.75,0.625,0.333333,0.666667,0.5,0,0.342857,0.222222,20.65,0.9578,0.7416,14.67
1,0,0,1,0,0,1,0,0.593156,0,1,0.666667,0.666667,0.0642857,0,0,0,0,1,0.75,0.625,0.333333,0.666667,0.5,0,0.4,0.222222,23.8,0.7454,0.7856,13.93
1,0,0,0,1,0,1,0,0.513308,1,1,0.666667,0.666667,0.0714286,1,0,0,0,0.5,1,0.125,0.166667,0.666667,0.75,0.7,0.285714,0.111111,4.52,0.15,0.38,0.26
0.9,0,0.1,1,0,0,1,0,0.6121673,1,1,0.666667,0.666667,0.0714286,0,1,1,1,0.5,1,0.125,0.166667,0.666667,0.666667,0.5,0.285714,0.111111,18.57,1,0.744,13.81
1,0,0,0,1,0,1,0,0.501901,1,1,0.666667,0.666667,0.0714286,0,0,0,0,0.5,1,0.125,0.166667,0.666667,0.666667,0.3,0.285714,0.111111,18.65,0.62,0.55,6.36
0,0,1,1,0,0,0.666667,0.333333,0.714829,0,1,1,0.666667,0.0535714,0,0,0,0,0.5,0.75,0.125,0.0555556,0.5,0.5,0,0.457143,0.0555556,15.39,1.13,0.8009,13.93
1,0,0,1,0,0,1,0,0.570342,0,0.666667,0.333333,0.333333,0.0642857,0,0,0,0,0.5,0.25,0.25,0.166667,0,0,0,0.2,0.333333,20.9,0.99,0.65,13.5
1,0,0,0.5,0.5,0,1,0,0.448669,1,1,0.666667,0.666667,0.0714286,0,0,0,0,1,0.25,0.75,0.666667,0.416667,0.5,0,0.314286,0.5,24.9,0.75,0.659,12.3
1,0,0,1,0,0,1,0,0.570342,0,0.333333,0.333333,0.333333,0.214286,0,0,0,0,0.5,0.25,0.75,0.666667,0,0,0,0.2,0.333333,20.31,1.036,0.723,15.23
1,0,0,1,0,0,1,0,0.589354,0,0.333333,0.333333,0.333333,0.114286,0,0,0,0,0.5,0.25,0.8125,0.333333,0,0,0,0.285714,0.111111,20.2,0.985,0.54,10.5
0,0,1,1,0,0,0.666667,0.333333,0.722433,0,0.333333,0.333333,0.333333,0.0642857,1,0,0,1,0.5,0.75,0.125,0.111111,0.666667,0.666667,0,0.342857,0.111111,14.47,1.17,0.6737,11.4
0,0,1,1,0,0,0.666667,0.333333,0.722433,0,0.333333,0.333333,0.333333,0.0642857,1,0,0,1,0.5,0.75,0.125,0.111111,0.666667,0.666667,0,0.371429,0.111111,14.4,1.13,0.6818,11.11
0,1,0,0,1,0,1,0,0.528517,1,1,1,0.666667,0.0342857,0,1,0,1,0.5,0.75,0.25,0.0555556,0.833333,0.5,0,0.2,0.111111,19.55,0.5,0.6371,6.25
0,0,1,1,0,0,0.666667,0.333333,0.722433,0,0.333333,0.333333,0.333333,0.0642857,1,0,0,1,0.5,0.75,0.125,0.111111,0.666667,0.75,0.15,0.571429,0.111111,15.22,1.2,0.7589,13.86
0,1,0,0,1,0,1,0,0.532319,1,1,0.666667,0.666667,0.0285714,0,0,0,0,0.5,0.75,0.625,0.333333,0,0,0,0.271429,0.166667,19.95,0.408,0.5822,4.74
0,1,0,0,1,0,1,0,0.532319,1,1,0.666667,0.666667,0.0285714,0,0,0,0,0.5,0.75,0.625,0.333333,0,0,0,0.271429,0.166667,18.98,0.386,0.5938,4.36
0,1,0,0,1,0,1,0,0.532319,1,1,0.666667,0.666667,0.0285714,0,0,0,0,0.5,0.75,0.625,0.333333,0,0,0,0.271429,0.166667,18.57,0.381,0.578,4.09
0,1,0,0,1,0,1,0,0.532319,1,1,0.666667,0.666667,0.0285714,0,0,0,0,0.5,0.75,0.625,0.333333,0,0,0,0.271429,0.166667,17.37,0.386,0.5744,3.85
0,1,0,0,1,0,1,0,0.532319,1,1,0.666667,0.666667,0.0285714,0,0,0,0,0.5,0.75,0.625,0.333333,0,0,0,0.271429,0.166667,16.98,0.351,0.5588,3.38
0,1,0,0,1,0,1,0,0.532319,1,1,0.666667,0.666667,0.0285714,0,0,0,1,0.5,0.75,0.625,0.333333,0,0,0,0.271429,0.166667,22.24,0.493,0.6519,7.15
0,1,0,0,1,0,1,0,0.532319,1,1,0.666667,0.666667,0.0285714,0,0,0,1,0.5,0.75,0.625,0.333333,0,0,0,0.271429,0.166667,21.95,0.478,0.646,6.78
0,1,0,0,1,0,1,0,0.532319,1,1,0.666667,0.666667,0.0285714,0,0,0,1,0.5,0.75,0.625,0.333333,0,0,0,0.271429,0.166667,21.19,0.475,0.637,6.42
0,1,0,0,1,0,1,0,0.532319,1,1,0.666667,0.666667,0.0285714,0,0,0,1,0.5,0.75,0.625,0.333333,0,0,0,0.271429,0.166667,21.35,0.481,0.6074,6.25
0,1,0,0,1,0,1,0,0.532319,1,1,0.666667,0.666667,0.0285714,0,0,0,1,0.5,0.75,0.625,0.333333,0,0,0,0.271429,0.166667,19.74,0.484,0.6231,5.96
1.00005,0.003209692,0,0.997873,0.001334925,0.00231408,0.995181,0,0.615719,0.003056619,0.663358,0.333653,0.3307,0.0606905,0,0,0.000110919,0,0.499036,0.749367,0.499761,0.334043,0,0.005934045,0.194486,0.287019,0.109385,22.02,0.97,0.758,16.22
0,1.00253,0,0.996636,0,0.001780684,1.00525,0,0.570519,0.001673531,0.335099,0.332348,0.670004,0.226218,0,0.000540585,0.000494038,0.003773463,0.501195,0.99788,0.373391,0.22183,0,0.003275046,0.503167,0.355419,0.218882,25.87,1.107,0.82,23.48
0,0.004167736,0.995318,0.997913,0,0.001086724,0.667286,0.33639,0.72299,0.001830215,0.333738,0.333417,1.00248,0.0510059,0.005408073,0.999167,0.001561404,1.0041,0.499906,0.748715,0.347959,0.276041,0.004140109,0.003416274,0,0.999697,0.0553267,13.72,1.17,0.68,10.9
0.997137,0.000763624,0,0,0.999991,6.04E-05,0.000496727,1.00221,0.813858,0,0.331998,0.33485,0.331712,0.0724599,0,0,0,0,0.497473,0.250612,0.496869,0.501825,0.002788899,0.004137873,0,0.355897,0.336418,8.26,0.82,0.59,4.27
0,0.999865,0,0,1.00361,0,0.99912,0.00411289,0.514135,0.996662,0.998928,0.667483,0.999199,0.0250305,0.999179,0.999666,0.9988,0.001195533,0.501218,0.749558,0.998195,0.667434,0.000763542,0.008329574,0.116963,0.21906,0.104629,21.19,0.66,0.6689,9.38
0.001287763,0.997836,0.00013613,0.000608063,0.998743,0.003078115,1.00603,0,0.537165,0.997485,0.998389,0.66257,1.00667,0.0244524,0.999944,1.00248,1.00093,0.998924,0.500922,0.750381,0.999618,0.661627,0.001963949,0.000958461,0.120671,0.234817,0.110947,25.15,0.82,0.7169,14.79
0.954174,0.0486831,0.003930776,0.998109,0,0.003457435,0.972681,0.0343613,0.617471,1.00282,0.669884,0.335169,0.333524,0.4979,1.00148,0,1.00231,0,1.00747,0.750322,0.129979,0.0565494,0.672449,0.200717,0.0400097,0.382611,0.03779293,23.5,1.065,0.687,17.22
0.004583519,0,1.00035,0.005418187,1.00208,0.001930945,0.998226,0,0.496271,0.997712,0.997508,0.667206,0.670584,0.0302838,0.997102,1.00077,0,1.00009,0.50337,0.751652,0.379093,0.329578,0.007318128,0,0,0.199248,0.0865384,24.94,0.75,0.74,13.68
0.003921213,0.002064979,1.00167,0.999875,0.002376254,0.000182354,0,0.997833,0.868493,0,0.335148,0.002306535,0.996695,0.02698,0.998245,0.005887076,0.00338177,0.001710666,1.00085,0.995191,0.252082,0.336218,0.328422,0.170945,0.120278,0.706705,0.0527852,8.74,1.23,0.754,8.11
0,0.996091,0,0.997343,0,0,0.9987,0.000543798,0.589318,0.003147175,0.662966,0.335455,0.336788,0.0850493,1.0045,0.998964,0.008037817,0.998272,0.999273,1.0021,0.0370655,0.108353,0.672386,0.495821,0.202231,0.426615,0.111428,23.89,1.03,0.756,18.65
0.000361174,1.00038,0.001569631,1.00229,0,0,0.999839,0,0.585924,0.998631,0.661455,0.33185,0.331532,0.0655912,0.998059,0.007899951,1.00196,1.00209,0.497173,0.248893,0.501034,0.114831,0.005283568,0,0.002742905,0.42592,0.222771,24.81,1.04,0.78,20.23
0.102871,0.905312,0,1.00221,0,0.00298287,0.996888,0,0.58249,1.00064,0.665031,0.33438,0.664791,0.0259498,0.001345977,0,0,1.00168,0.997939,0.752275,0.121248,0.10968,0.662226,0.498406,0.101409,0.431247,0.114467,23.4,1.05,0.753,18.3
0.00438374,1.00158,0.00071174,0.002662387,0.998183,0.003668999,1.00187,0,0.538959,0,0.333231,0.329113,0.334147,0.113833,1.00368,0,0,1.0014,1.00025,0.743223,0.130907,0.114325,0.83391,0.833607,1.00038,0.173883,0.662675,24.5,0.29,0.55,4
0,0.996738,0.003368318,0,1.00399,0,0.994477,0.002572197,0.541144,0.005966978,0.334296,0.330266,0.329954,0.142758,0.002889738,0.999656,1.00359,0.001776803,0.498763,0.247404,0.2606217,0.443361,0.004708827,0,0.002004915,0.200133,0.331522,24.45,0.238,0.36,2.1
0.998846,0.004386702,0,0,0.996024,0.005332456,0.995576,0.000737761,0.497198,0.003436093,0.332197,1.0039,0.332537,0.09733907,0.003053282,1.00281,1.00217,0,0.50054,0.502304,0.185363,0.333298,0,0,0.003912525,0.280034,0.224114,19.92,0.3775,0.5173,3.89
0.993378,0,0.002371498,0.492258,0.497416,0.002607366,0.600284,0.400606,0.552403,0.999623,0.997593,0.669525,0.66905,0.0711877,0,0,0.002527237,1.00504,0.999006,0.998696,0.123845,0.166519,0.669969,0.748932,0.700786,0.287992,0.113345,6.02,0.57,0.68,2.34
0.24021,0.748551,0,0,0.905768,0.999678,0.995828,0,0.539702,0.994843,1.00274,0.66942,0.338887,0.074719,0.001227517,1.00153,0.00278296,0,0.504054,0.253534,0.625046,0.556702,0.003622372,0.000957157,0.433133,0.199051,0.109226,13.27,0.33,0.49,2.04
0.995643,0,0,0,0.999365,0,0.006138297,0.998366,0.811786,0.003766369,0.337148,0.32947,0.325369,0.0704395,0,0.002896376,0.000528762,0.00264509,0.497598,0.247977,0.503593,0.501938,0.000732424,0.006579499,0.003084187,0.356572,0.330617,8.26,0.88,0.59,3.27
0,0,1.00257,0.948759,0.0428329,0.005224119,1.00408,0.002899634,0.605511,0.002358822,0.332141,0.998648,0.334527,0.0596186,0.003267532,0.998417,1.00293,0.003924902,0.999561,0.74746,0.0980918,0.110661,0.583051,0.580197,0.002429206,0.284815,0.162502,17.35,0.93,0.6607,10.66
0.15943,0.790264,0.0479392,1.0007,0,0.004022348,0.826076,0.167684,0.617017,1.0028,0.99853,0.670295,0.661579,0.0284859,0,0,0,0.002554111,0.499551,0.750514,0.623762,0.444388,0.004564911,0.006118979,0.000546664,0.28476,0.327508,19.82,0.7,0.6975,9.69
0.162454,0.789938,0.0527703,0.834266,0.166457,0,0.825354,0.175514,0.55915,1.00177,0.999705,0.664616,0.669465,0.03065841,0,0.008024148,0.004578534,0.00137099,0.500694,0.750635,0.625897,0.445981,0.00364866,0,0.006251001,0.282658,0.336863,24.38,0.7,0.6624,11.27
0.162955,0.790069,0.0504872,0.578673,0.428139,0,0.82718,0.17136,0.511456,1.00219,0.997382,0.666624,0.671065,0.0292583,0.001482966,0,0.003363855,0.002165064,0.500897,0.744693,0.6271211,0.443924,0,0.00416907,0,0.289692,0.330654,25.9,0.74,0.6951,13.25
0.002171621,0.002710538,0.999141,1.00141,0,0,0,0.996261,0.877992,0.000961311,0.337042,0,0.997553,0.084983,0.001120165,3.40E-05,0,0.001824604,0.499866,0.247981,0.377784,0.337018,0.005126448,0.00328252,0.00206324,0.715558,0.05364841,6.4,1.19,0.67,5.1
0.001228703,0.000143565,0.997321,0.703313,0.002991326,0.301038,0,0.998727,0.834625,0.001283934,0.328877,0,0.9965,0.0676076,0,0.004344688,0.000526166,1.00026,0.998568,0.253779,0.250061,0.331083,0.334329,0.501501,0,0.710603,0.05848037,7.45,1.536,0.802,9.2
0,0.000713472,1.0007,0.976355,0,0.0249206,0,1.00354,0.873264,0,0.326952,0.002340091,0.998917,0.06588703,0,0.005586629,0.001336194,0.993391,1.00139,0.247299,0.25044,0.330722,0.336018,0.497627,0,0.71684,0.0561793,7.04,1.45,0.772,7.87
0.003463986,0.002650747,1.0038,0.989871,0.004162026,0.0132748,0.667383,0.3374024,0.725513,0.009742893,0.334734,1.00596,0.333659,0.110579,0.001713938,0.006924605,0.003641302,1.00009,0.995139,0.748112,0.122584,0.107737,0.663172,0.502343,0,0.285459,0.051327,14.3,0.938,0.622,8.3
0.001496982,0,1.00428,0.995007,0,0.002161311,0.334058,0.663272,0.79202,0.004497161,0,1.00076,0.336658,0.0652999,0.002623255,0.003014839,0.002668465,0,0.500826,0.499776,0.314848,0.332634,0,0.0009456,0.005669255,0.453669,0.226425,8.33,0.47,0.33,1.3
0,0,1.00045,0.94596,0.002365502,0.0467676,0.66677,0.331798,0.728527,0.000829555,0.337211,0.330074,0.329942,0.115002,0.002212496,0,0.002870322,0.998363,1.00362,0.748314,0.128581,0.10981,0.495663,0.504102,0,0.802357,0.110657,14.63,1.223,0.766,13.71
0,0.798125,0.1957,1.00079,0.000469697,0.001663479,0.994919,0.000566344,0.58022,0,0.332276,0.330408,0.667054,0.0822999,0.004166588,0.002565921,0,0,0.497311,0.751174,0.496874,0.335028,0.003194426,0,0.494846,0.423942,0.0563176,15.5,0.78,0.432,5.3
0.000684659,1.00282,0,1.00223,0,0,1.00089,0,0.576072,0.003401948,0.333268,0.338109,0.669714,0.08932865,0,0.00249533,0,0,0.496559,0.752916,0.494277,0.337213,0,0,0.494737,0.426373,0.0565425,22.5,1.03,0.7,16.2
0.003141984,0.999221,0,0.995256,0.007267735,0.001368237,1.00296,0,0.580194,0.001593195,0.333955,0.337668,0.666974,0.0903898,0,0.001087543,0.004969234,0.002687069,0.504301,0.746424,0.500953,0.337347,0,0.001451417,0.501042,0.428239,0.0636078,23,1.03,0.683,16.1
0.000108138,1.00464,0,1.00288,0,0.001054331,1.00021,0.000643903,0.575255,0.000684437,0.334774,0.333323,0.662137,0.0879012,0.000440982,0,0.002181917,0,0.497724,0.750594,0.50257,0.334379,0.003396177,0.001874214,0.505528,0.426651,0.0522659,23.2,1.04,0.661,15.9
0,0.999562,0.004754748,0.997115,0.001911506,0.005092261,0.99879,0.007484157,0.5703,0,0.339754,0.3286111,0.670186,0.0910718,0.003897661,0,0,0.003784668,0.502244,0.750306,0.49441,0.33409,0,0.002644536,0.502415,0.42803,0.0494817,22.1,0.99,0.69,15.2
0,0,0.996684,0.97604,0,0.0157843,1.00287,0.002350168,0.631574,0.003403987,0.330582,0.335171,0.335427,0.0597289,0,0,0.001346983,0,0.498565,0.750425,0.186536,0.10936,0.665135,0.499435,0.002488153,0.518136,0.0988963,20.36,0.951,0.629,12.19
0.005979049,0,0.99898,0.899427,0,0.0969795,0.999938,0,0.650026,0.003110391,0.335399,0.331477,0.335416,0.0684875,0,0.001483181,0,0,0.503323,0.74853,0.190555,0.112991,0.665403,0.502873,0.00462229,0.518294,0.10538,19.74,1.117,0.823,18.14
0.172656,0.729024,0.0996061,1.00201,0.003231371,0.00367088,0.826427,0.164119,0.612643,0.000505523,0.33173,0.325125,0.329498,0.112645,0,0.997433,1.00193,0,0.991589,0.751963,0.1265,0.114104,1.00018,0.329927,0.009848221,0.288566,0.67201,22,1.13,0.77,19.1
0.150697,0.751004,0.102216,1.00366,0,0.002362284,0.831198,0.169967,0.618444,0.000703726,0.334268,0.337254,0.334556,0.120413,0,1.0024,1.00044,0.000286843,1.00671,0.750897,0.123933,0.113641,1.00167,0.340809,0.0123372,0.281663,0.665468,20.7,1.049,0.75,16.3
0.124109,0.826005,0.0492932,1.00157,0,0,0.829349,0.167633,0.623883,0.000437242,0.328637,0.336975,0.330232,0.113479,0,1.00374,1.00176,0.001721207,1.00197,0.750115,0.126524,0.112371,1.007,0.3315,0.0139679,0.282965,0.663364,19.4,1.044,0.72,14.6
0.148572,0.852604,0.0530402,1.00132,0.001719791,0.000156043,0.848519,0.145656,0.611643,0.999832,0.666847,0.334443,0.666033,0.0706692,0.00196335,1.00408,1.0008,0.00338068,0.998986,0.496757,0.124655,0.111304,0.830685,0.499995,0.198031,0.284214,0.668408,23.19,1.109,0.6249,16.07
0.0231348,0.077191,0.02260486,0.5007526,0.500556,0.001490015,1.00022,0,0.477139,0.998027,0.999748,1.00201,0.665267,0.08021083,0.005551163,0.99952,0.999492,1.00012,0.497497,0.502839,0.623179,0.10988,0.000699472,0.002563396,0.001084717,0.28761,0.0831076,32.5,0.78,0.718,18.2
0.00135028,0.0046089,0.997677,1.00452,0.004139862,0.000741728,0.668737,0.334771,0.732323,0,0.326638,0.331041,0.332127,0.110224,0,0.006556339,0,0.003603439,0.501633,0.247123,0.189629,0.446503,0,0.001702046,0,0.8013955,0.113352,10.9,1.13,0.72,8.9
0.008869428,0,1.0012,0.998221,0.007720663,0.001534305,0.66352,0.334608,0.730115,0.00143444,0.331409,0.333008,0.333189,0.105608,0.004413241,0,0.001192834,0.001426923,0.498876,0.251178,0.186222,0.445058,0,0.002776722,0.001241186,0.803855,0.106623,10.68,1.21,0.72,9.3
0,0.001659571,0.997791,1.00555,0,0.001760566,0.662465,0.335071,0.731445,0,0.333217,0.329754,0.332684,0.105217,0.001365863,0.001759695,0,0,0.507901,0.251072,0.185786,0.442398,0.005235451,0.002652201,0.002698209,0.801143,0.112763,8.84,1.2,0.62,6.6
0.000794436,0.000489307,1.00106,0.9885,0.005454186,0.002964017,0.665314,0.332045,0.724678,0.00083717,0.3349959,0.331514,0.337275,0.108216,0,0,0.001901414,0,0.498844,0.247041,0.187223,0.442776,0.005201858,0.002189863,0.001630395,0.799109,0.109787,9.23,1.21,0.74,8.3
1.00612,0.00062765,0.002550796,0.997228,0,0.004469058,0.999394,0,0.595695,0.003550918,0.331486,0.332104,0.326079,0.0541845,0,0,0.002483424,0,1.00242,1.00168,0.128803,0.111225,0.500621,0.2508628,0,0.284366,0.112551,17.58,0.854,0.542,8.13
0.999745,0.001714398,0.001832223,0.995017,0,0,1.00458,0.000596391,0.601378,0,0.332253,0.335721,0.33516,0.04983451,0,8.16E-05,0,0,1.00033,1.00303,0.120905,0.111787,0.502333,0.254599,0.001366815,0.281825,0.11822,15.3,0.799,0.61,7.44
0.998104,0.002005913,0,1.00034,0.002483978,0,1.00235,0,0.593435,0.002479242,0.331852,0.332102,0.334209,0.0472674,0.999534,0,0,0.998251,1.00203,0.995047,0.126888,0.101894,0.497657,0.250135,0,0.289216,0.114267,22.28,0.976,0.697,15.16
0.997206,0.000292075,0.003942599,1.00157,0.000742764,0,0.99859,0.002139736,0.595619,0.00032383,0.334422,0.334255,0.332316,0.0512121,0.998982,0,0,0.999173,1.00337,1.00034,0.124346,0.109994,0.498921,0.253046,0,0.282457,0.112524,20.1,0.998,0.722,14.47
0.000464929,0,0.995274,0.999509,0.001721495,0.002148202,0.330486,0.668211,0.717844,0,0.334158,0,1.00495,0.0668973,0,0,0,0,0.499396,0.248822,0.248813,0.335657,0,0,0.001324939,1.00095,0.007249608,12.15,0.96,0.53,6.14
0,0.000935881,0.999382,0.988912,0,0.009265432,0.664199,0.331485,0.728698,0,0.334124,0.999344,0.339006,0.0634217,0.00292312,0,0.002341958,0,0.999284,0.751526,0.117179,0.111981,0.501617,0.497903,0,0.804455,0.116408,15.4,1.23,0.73,13.82
0,0.002158207,0.999168,0.996019,0.001192298,0.000598939,0.670527,0.334559,0.723559,0.002005705,0.331624,1.00302,0.328946,0.0662836,0,0.998941,0.00393928,0.996301,1.00038,0.747148,0.120685,0.107035,0.504882,0.500421,0.000270283,0.80352,0.110505,16.25,1.32,0.8003,17.16
1.00038,0.000548839,0.005792299,0.999788,0.002970906,0.002436268,0.413131,0.594626,0.749538,0.003318191,0.332888,0.333846,0.333002,0.140146,0.000622647,0.004531741,0.002374928,0.001041339,0.500508,0.249284,0.748882,0.0542255,0.002420034,0.000719077,0.006706578,0.202042,0.328975,6.35,0.834,0.524,2.8
0.000607254,0,0.9974,1.00283,0,0,1.00129,0.000949373,0.657161,0,0.32985,0.997098,0.33407,0.0653415,1.00005,1.00018,0.99737,1.00023,0.494382,0.748992,0.497915,0.32924,0,0,0,0.85609,0.108703,14.87,1.199,0.787,14.03
0,0,0.998375,0,0.996741,0,1.00442,0.002023669,0.481341,0,0.336225,0.332459,0.331044,0.145255,0,0.999803,0,0.996743,0.500111,0.498194,0.246177,0.443799,0,0.004297679,0,0.283516,0.109424,27.67,0.201,0.29,1.66
0.004024144,0.003169415,1.00367,0.997675,0.002057219,0.007055574,0.671469,0.333787,0.729903,0,0.330784,0.335047,0.337316,0.0494129,0.0021444,0.000145141,0.003301446,0,0.497885,0.248835,0.185258,0.446557,0.003095161,0.00015839,0.003958104,0.800744,0.0242892,10.5,1.22,0.74,9.5
0.001478444,0,0.998009,1.00355,0.002807787,0.009504116,0.66251,0.334408,0.727511,0.000528333,0.336476,0.335309,0.338896,0.04673763,0.000459713,0.000940749,0,0.004437498,0.502528,0.251924,0.185992,0.442053,0.003237418,0,0,0.797423,0.02626506,10.2,1.16,0.73,8.6
0,0.000467898,0.999416,1.0015,0,0,0.667259,0.332888,0.728747,0,0.332506,0.334331,0.335692,0.0495394,0.001098887,0.005141076,0.001284923,0.000703559,0.496797,0.245584,0.190148,0.440876,0,0.002184939,0.00092868,0.800625,0.0274865,10.1,1.23,0.73,9.1
0,0.001750445,1.00809,0.998659,0.001052929,0.001071096,0.666092,0.338758,0.734136,6.20E-05,0.334316,0.333258,0.335408,0.0510134,0,0,0,0,0.498058,0.252499,0.191775,0.446097,0.004022295,0.003078809,0.001826405,0.802456,0.0240446,12,1.23,0.73,10.7
0.002466686,0,1.00477,1.00396,0.005389996,0,0.668999,0.332731,0.725829,0.001127915,0.335954,0.336509,0.331995,0.0542391,0,0,2.73E-05,0.000302346,0.507651,0.249991,0.183981,0.44654,0,0.003737055,0,0.800317,0.0222435,11.2,1.17,0.66,8.7
0,0.001093996,0.993289,0.998475,0.004955877,0.001160198,0.664981,0.335066,0.729894,0.006517798,0.329538,0.331293,0.335189,0.0487737,0.000377135,0.001259479,0,0.004919828,0.500201,0.252062,0.188934,0.439557,0.000148764,0.001020155,0,0.795777,0.0247599,11.6,1.2,0.68,9.6
0.000244942,0.001684905,1.00231,0.899954,0,0.100566,0.664231,0.331216,0.721217,0.001799052,0.670671,0.333041,0.333345,0.07155404,0,0,0,0.9999119,0.49575,0.753033,0.372009,0.279798,0,0.001464948,0.502211,0.456312,0.111699,11.39,1.11,0.593,7.6
0,9.97E-05,0.999881,1.00102,0.004812214,0,0.672573,0.337828,0.729126,0.006806412,0.665711,0.334901,0.671621,0.0875799,0,0,0.002350587,0.000163655,0.503132,0.745435,0.622373,0.328163,0.001024764,0,0,0.798521,0.0662564,11.93,1.203,0.69,9.9
0,0.001537524,1.0019,0.999204,0.000390972,0,0.668739,0.332483,0.72792,0.000739846,0.66191,0.332883,0.664815,0.0864991,0,0.00321892,0.004170379,0.005349759,0.494163,0.748036,0.631262,0.336121,0.005149393,0.003533474,0,0.799025,0.0699182,12.06,1.162,0.72,10.09
0,0,1.0001,0.997581,0,0,0.66969,0.334235,0.724525,0.004524468,0.672236,0.333196,0.670087,0.08157291,0.002074447,0,0,0.995769,0.499521,0.746221,0.630401,0.331882,0.002449791,0,0.002193613,0.794879,0.0671527,12.04,1.283,0.79,12.2
0,0.001704398,0.99932,0.999302,0,0.001836272,0.670875,0.334214,0.72155,0,0.670357,0.330359,0.66333,0.0841012,0,0.002163829,0,0.997957,0.500348,0.748396,0.62569,0.329256,0.000985947,0,0,0.796653,0.0645567,11.93,1.265,0.7,10.56
0.002397631,0.001243186,1.00062,1.00303,0,0.002083296,0.666941,0.332111,0.727975,0.002297556,0.331021,0.32779,0.668285,0.0885281,0.001138811,0,0.002931461,0,0.498454,0.753606,0.62467,0.331711,0.004030324,0,0.001791554,0.803435,0.0679155,13.16,1.248,0.74,12.15
0,0.007205832,0.998136,0.998013,0.001837143,0,0.668383,0.333114,0.728936,0,0.335027,0.331093,0.664162,0.0901151,0.00197933,0,0,0.00366975,0.502777,0.746895,0.623863,0.33479,0.001642124,0,0,0.799046,0.0658745,13.08,1.226,0.74,11.87
0.000208196,0,1.00543,0.999923,0,0,0.664899,0.332905,0.724153,0,0.335486,0.328738,0.664618,0.083188,0.001929138,0,0.000299218,0,0.497207,0.749365,0.618477,0.336201,0,0.001680237,0,0.796677,0.0686803,13.03,1.227,0.72,11.51
0,0.001804758,1.00009,1.00049,0.000786477,0,0.66444,0.33269,0.726863,0,0.331707,0.335552,0.668839,0.0863197,0.00327436,0,0,0.00447413,0.501372,0.753091,0.626294,0.331302,0.00246202,0,0.000767293,0.800331,0.06595623,12.52,1.222,0.73,11.09
0.001123822,0,0.998701,1.00152,0.001638601,0.00383012,0.666856,0.334716,0.723819,0.002321458,0.332625,0.3312535,0.66619,0.0886286,0,0,0.000143565,0,0.499372,0.745414,0.615286,0.333382,0,0.002668799,0.003361621,0.804713,0.0644803,12.5,1.185,0.72,10.7
0,1.34E-05,1.00095,0.996207,0,0.00031589,0.673253,0.332244,0.728198,0.002482909,0.33209,0.335389,0.669174,0.0849101,0.001609051,0,0.003110831,0.001747076,0.503172,0.750172,0.623345,0.334639,0.002985855,0.001153821,0,0.798575,0.0701179,11.8,1.242,0.69,10.12
0.001880068,0,0.999536,0.999815,0,0.004855147,0.663627,0.33235,0.726283,0,0.331154,0.338089,0.666737,0.0831196,0.00189138,0.001599397,0,0,0.495103,0.752449,0.629139,0.330115,0.000845119,0.000638551,0,0.80203,0.0662775,11.8,1.269,0.63,9.37
0,0,1.0018,0,0.99898,0,0.996777,0,0.492556,0,0.334311,0.997323,0.330925,0.0994105,0.001715923,0.997482,1.00249,1.0061,0.497675,0.752227,0.306519,0.673663,5.64E-06,0,0,0.293063,0.22658,24.06,0.2918,0.3402,2.39
0.001188114,1.00293,0.001697519,0.001658412,0.994278,0,0.997564,0,0.550669,0.996107,1.00188,0.664942,0.670879,0.0144464,1.00207,0.002630807,1.00169,1.00068,0.500965,0.500236,0.624797,1.00012,0,0.002644593,0.796501,0.203122,0.108805,20.3,0.468,0.655,6.2
0,1.00213,0.003339036,0.001250353,0.999011,0.000263546,1.00412,0,0.552658,0.99565,0.996883,0.668664,0.668113,0.01745686,0.998003,0,0.990856,1.00171,0.500667,0.502587,0.630229,0.997209,0,0,0.8015329,0.204338,0.114281,21.1,0.485,0.63,6.4
0,0.995772,0,0,1.00687,0,0.994965,0,0.546874,0.99783,1.00238,0.668959,0.671507,0.0191161,1.00228,0,1.00379,1.00003,0.50151,0.498072,0.627403,1.00002,0.001523362,0.003822285,0.799726,0.198207,0.114039,19.5,0.497,0.678,6.6
0,0.997306,0,0,0.99113,0.007769712,0.995967,0,0.546937,1.00025,0.996268,0.669446,0.663654,0.0138597,0.993002,0,1.00298,0.997614,0.501751,0.497871,0.624655,0.999147,0.002032592,0,0.796927,0.200506,0.109728,17.4,0.536,0.715,6.7
0,1.0021,0,0.002127279,0.998534,0,0.998842,0,0.549932,1.00124,0.998065,0.663579,0.666906,0.0176332,0.999784,0.000659846,0.998813,1.0043,0.501386,0.50035,0.627257,1.00219,0,0.003183036,0.803326,0.200296,0.112546,19,0.545,0.665,6.9
0.001051528,0.951068,0.0528483,1.00035,0.002880051,0.001980705,1.00038,0.001937748,0.58046,0,0.670166,0.331283,0.335214,0.0576487,0.001985802,0,0.004891713,0.003216546,0.49972,0.751655,0.5018255,0.665146,0,0.001837482,0.750102,0.428473,0.111386,21.69,0.93,0.5852,11.79
0.000655779,0.800764,0.20154,1.00082,0.001929351,0.000117375,0.999926,0,0.602676,7.87E-05,0.664484,0.338197,0.329479,0.0606025,0.000459178,0,0.005758819,0,0.49622,0.74825,0.49743,0.672947,0.002613382,0,0.752013,0.284224,0.111997,21.73,1.03,0.7237,16.18
0.004973273,0.698395,0.300588,1.00585,0,0,1.00078,0.00443021,0.602742,0,0.663225,0.333461,0.329243,0.0591539,0,0.004286139,0.002486269,0.006211339,0.496378,0.752229,0.503747,0.660193,0,0,0.754704,0.285249,0.109965,20.46,1.02,0.662,13.81
1.00158,0.001209336,0,1.00282,0,0,0.998397,0.000230191,0.60064,0.001091478,0.329398,0.33569,0.334939,0.08255669,0,0.002957926,0,0.997119,0.500693,0.251011,0.623294,0.332723,0.000139881,0,0,0.285598,0.108947,17.57,0.698,0.4488,5.63
0,0,0.994027,0.998787,0,0.000847809,0.004734109,0.995958,0.881526,0,0.327323,0.005282953,0.999326,0.0667198,0,0,0,0,0,0.74924,0.252015,0.325228,0.006001112,0,0.000662825,0.717019,0.0551691,5.23,1.31,0.73,4.97
0,0.003965694,0.995315,0.995283,0.001454032,0,0,1.00688,0.878879,0,0.334046,0,1.00104,0.0611071,0,0,0,0.008729751,0.502714,0.751112,0.253122,0.330406,0,0.004172894,0,0.716247,0.0515667,5.88,1.35,0.77,6.09
0.999205,0,0,0.750839,0.254049,0.002981993,0.996703,0,0.449077,0.004358442,1.00141,0.663818,0.66995,0.060374,0.003427916,0.000304586,0,1.00225,0.993914,0.755293,0.626251,0.334224,0.67214,0.498883,0.000790513,0.349755,0.222882,20.24,0.9578,0.733,14.21
1.00177,0,0,1.00168,0.001151331,0,1.00658,0,0.605035,0.999435,1.00058,0.663271,0.667324,0.0746149,1.00013,0.004354206,0.000939909,0.000327605,0.499445,1.00247,0.125612,0.170562,0.665009,0.748403,0.696911,0.28815,0.108227,19.6,0.92,0.78,14.07
0.748696,0.249915,0.00088375,0.748814,0.246963,0.001595688,1.00276,0.003023509,0.51278,1.00191,1.00473,0.667526,0.668403,0.0743398,1.00123,0.007685887,0,0.000557116,0.503883,0.997082,0.124256,0.167528,0.667835,0.750785,0.703658,0.2914042,0.110619,22.52,0.8,0.77,13.87
0.902766,0,0.097123,0.746221,0.252349,0.000335762,1.00504,0.004680663,0.526773,1.00076,0.996155,0.666724,0.6637195,0.0696957,0.000326571,1.0009,0.995283,0.997433,0.503357,0.996967,0.122151,0.172471,0.66898,0.667774,0.400989,0.281933,0.109523,22.8,0.84,0.76,14.55
0.795833,0.002114204,0.195425,0.499741,0.500649,0.00410429,1.00385,0.001137481,0.504645,1.00682,1.00028,0.669356,0.66712,0.0655305,0,1.00337,0.998518,0.999715,0.497765,1.00531,0.128136,0.16723,0.668484,0.670344,0.297712,0.289002,0.111518,20.58,0.6,0.607,7.5
0.001635663,0,1.00366,0.99787,0.001388473,0.003285555,0.668682,0.333749,0.713269,0.000238842,1.00805,1.00573,0.663418,0.05327,1.00193,0.999217,0.00189911,1.00193,0.495799,0.74982,0.120166,0.0551763,0.493845,0.502292,0,0.46082,0.0544189,15.55,1.152,0.8079,14.47
1.00246,0,0,0.994592,0.00116996,0,0.998796,0.003091908,0.572918,0,0.662949,0.328614,0.333298,0.06344627,0,0.000409466,0.000484581,0.000671822,0.502319,0.248847,0.246134,0.165839,0,0.002446691,0,0.201523,0.330151,18.6,1.01,0.61,12.1
0.997752,0.001799985,0,0.498571,0.504213,0.005544106,0.997291,0,0.450357,1.00042,0.999117,0.663149,0.662499,0.0733543,0,0.000692159,0,0,1.00385,0.249473,0.75334,0.668515,0.415826,0.501036,0.002446287,0.311924,0.49761,25.2,0.74,0.653,12.2
0.995873,0,0,0.995408,0,0,1.00222,0.000504309,0.581311,0,0.331649,0.32755,0.332324,0.115773,0,0.00466028,0,0.006091959,0.503018,0.250283,0.808143,0.336122,0,0,0.001612418,0.283487,0.108563,18.7,1.11,0.67,13
0,0,1.00209,1.00527,0,0.00399324,0.669748,0.331562,0.721021,0.00251036,0.337102,0.335805,0.335355,0.0667797,0.996963,0,0.00206529,0.997123,0.501715,0.749755,0.12767,0.115303,0.662411,0.664518,0.000688659,0.337234,0.111216,14.89,1.18,0.7723,13.54
0,0.003172187,1.00313,0.995754,0,0,0.668203,0.337204,0.720452,0,0.338614,0.335101,0.33827,0.0680362,1.00033,0,0,0.994871,0.496843,0.749562,0.124709,0.109434,0.665417,0.667153,0.000769466,0.368474,0.111115,14.61,1.19,0.6725,11.73
0,0.002500142,1.00111,0.998744,0.003452342,0,0.668989,0.339823,0.724503,0.003584013,0.334145,0.3396,0.3379,0.0607929,0.995446,0,0.005693066,1.0004,0.504712,0.746092,0.128096,0.111172,0.66522,0.662383,0,0.338882,0.107772,15.55,1.15,0.7564,13.57
0.009659569,0.998446,0.00354369,0,1.00464,0,1.00055,0,0.534337,0.996818,0.994871,0.994077,0.663087,0.0381501,0.004201214,1.00137,0.003465228,1.0037,0.495076,0.752752,0.248519,0.05275975,0.831259,0.499633,0.002922476,0.194129,0.112926,19.18,0.33,0.5791,3.71
2.06E-05,0.004558092,0.998403,1.00273,0.000193942,0,0.668005,0.327094,0.718207,0,0.335826,0.333435,0.332879,0.350742,1.00021,0.001656736,0.005458239,1.0002,0.498458,0.74935,0.126182,0.112294,0.668374,0.750622,0.142114,0.568756,0.111214,14.86,1.18,0.7299,12.8
0.004770477,0.999276,0.001131773,0,0.99761,0.002118079,1.0001,0,0.533666,1.0025,0.996634,0.669953,0.667587,0.0247433,0,0,0,0,0.498971,0.752141,0.622817,0.334495,0.003674731,0,0,0.273442,0.163135,18.6,0.408,0.5959,4.52
0.000845459,1.00112,0.003759261,0.003865102,0.998551,0,0.994473,0,0.534005,1.00103,0.9993152,0.668669,0.66991,0.0236268,0,0,0.00314726,0,0.496539,0.748536,0.623851,0.33716,0,0,0.001289496,0.273518,0.162136,19.74,0.372,0.585,4.3
0,1.00362,0.000879471,0.004167967,1.00451,0.004315256,1.00365,0.001029199,0.5317,1.00257,1.00031,0.66133,0.666912,0.0282048,0.00567957,0,0,0.006279893,0.500915,0.746,0.629309,0.3306,0.000555901,0,0,0.26985,0.165406,17.86,0.369,0.6065,4
0,1.00223,0,0,1.00393,0,0.996735,0,0.53091,1.00039,1.00017,0.669031,0.665108,0.027694,0,0.000689547,0,0,0.495964,0.749086,0.62339,0.333282,0.001400583,0,0.001798619,0.273019,0.165478,18.27,0.366,0.5699,3.82
0,1.00258,0,0,0.999295,0.000659094,0.999977,0.000887057,0.528752,0.999247,0.998771,0.668878,0.666234,0.0318248,0.001098368,0,0,0.003140342,0.499669,0.749865,0.624712,0.332097,0,0.000263823,0.000951472,0.275045,0.168767,16.51,0.34,0.5769,3.24
0,1.00155,0.00106089,0.000137893,1.00019,0.002355273,0.999755,0.000176405,0.52943,0.999199,1.00061,0.67016,0.666563,0.0246965,0.003520173,0,0,1.00111,0.501799,0.75205,0.6204,0.332836,0,0,0,0.272517,0.168529,21.89,0.494,0.6503,7.03
0,1.00448,0,0.002332139,1.00176,0,0.998837,0.004701169,0.535309,0.999686,0.99947,0.664155,0.662526,0.0303876,0.001889926,0,0.007019605,1.00199,0.498708,0.752436,0.629654,0.33233,0.001416587,0.002222303,0.000279417,0.274997,0.163866,22.17,0.471,0.644,6.72
0,0.999124,0,0,1.00311,0,0.995286,0.003928176,0.526805,0.995775,1.00185,0.663337,0.669777,0.0281295,0.004090752,0,0,0.999667,0.499388,0.753282,0.632212,0.333118,0.003253672,0.005531354,0,0.270924,0.167244,21.93,0.477,0.6128,6.41
0.001297309,1.00182,0,0,0.997694,0.003146049,0.998405,0.002806405,0.531798,0.995295,1.00295,0.666398,0.666609,0.0298683,0.000628771,0,0,0.997872,0.496579,0.75119,0.625419,0.334932,0,0,0.004808112,0.272774,0.166646,20.51,0.485,0.6221,6.19
0,0.998819,0.000781425,0.006202486,1.00152,0,1.00138,0.002086086,0.535894,1.00022,1.00304,0.670165,0.666392,0.0212812,0.003179974,0,0.000566183,1.00185,0.502191,0.750449,0.624371,0.329947,0,0,0.001315367,0.268494,0.1666,19.97,0.478,0.6194,5.92
0.001346036,0.995867,0,0,1.00069,0,0.996449,0.004427494,0.53798,0.995036,1.00608,0.668758,0.668346,0.0249665,0,1.61E-05,0,1.00458,0.501066,0.758316,0.626057,0.334396,0.001665109,0.001205625,0.002041799,0.271915,0.164587,19.86,0.483,0.6001,5.75