File: 4.GBDT/.ipynb_checkpoints/data - 副本-checkpoint.csv
MA,FA,Cs,Pb,Sn,Other,I,Br,Gap,Po,ETL,HTL,Ne,Add_O,Add_I,Add_H,Step,Solvent,Coated1_v,Coated1_t,Coated2_v,Coated2_t,Antisolvent,Anneal_T,Anneal_t,Jsc,Voc,FF,PCE
1,0,0,1,0,0,1,0,0.61597,1,1,1,0.666667,0,0,0,0.5,0.75,0.5,0.222222,0,0,1,0.285714,0.0222222,21.15,1.028,0.783,12.02
0,1,0,1,0,0,1,0,0.570342,0,0.333333,0.333333,0.666667,1,0,1,0.5,1,0.375,0.222222,0,0,1,0.357143,0.222222,25.91,1.165,0.831,25.09
0,0,1,1,0,0,0.666667,0.333333,0.722433,0,0.333333,0.333333,1,0,1,0,0.5,0.75,0.35,0.277778,0,0,0,0.428571,0.0555556,13.34,1.05,0.62,8.7
1,0,0,0,1,0,0.333333,0.666667,0.665399,0,0.333333,0.333333,0.333333,0,0,0,0.5,0.25,0.5,0.5,0,0,0,0.357143,0.333333,12.3,0.82,0.57,5.73
0.15,0.85,0,1,0,0,0.85,0.15,0.551331,0,0.333333,0.333333,0.333333,0,0,0,1,0.5,0.625,0.5,0.833333,0.5,0,0.285714,0.666667,23.08,1.07,0.62,15.46
0,1,0,0,1,0,1,0,0.543726,1,1,0.666667,1,1,1,1,0.5,0.75,1,0.666667,0,0,1,0.228571,0.111111,24.91,0.84,0.7076,14.81
0.952,0.048,0,1,0,0,0.968,0.032,0.61597,1,0.666667,0.333333,0.333333,1,0,1,1,0.75,0.125,0.0555556,0.666667,0.2,1,0.385714,0.0333333,24.07,1.131,0.768,20.93
0.904,0.096,0,1,0,0,0.936,0.064,0.619772,1,0.666667,0.333333,0.333333,1,0,1,1,0.75,0.125,0.0555556,0.666667,0.2,1,0.385714,0.0333333,23.32,1.06,0.713,17.67
0.15,0.85,0,1,0,0,0.85,0.15,0.608745,0,0.333333,0.333333,0.333333,1,0,0,0.5,0.75,0.75,0.333333,0,0,1,0.285714,0.666667,22.89,1.123,0.756,19.43
0,1,0,1,0,0,1,0,0.587452,0,0.666667,0.333333,0.333333,1,1,0,1,1,0.0375,0.111111,0.666667,0.5,1,0.428571,0.111111,23.83,1.05,0.715,17.89
0,1,0,1,0,0,1,0,0.585551,1,0.666667,0.333333,0.333333,1,0,1,0.5,0.25,0.5,0.333333,0,0,0,0.428571,0.111111,24.9,1.13,0.75,21.18
0.17,0.83,0,1,0,0,0.83,0.17,0.608365,1,0.666667,0.333333,0.333333,0,0,0,0.5,0.75,0.75,0.333333,0,0,1,0.285714,0.555556,23.23,1.18,0.7335,20.54
0,1,0,0,1,0,1,0,0.536122,0,0.333333,0.333333,0.333333,1,0,0,1,0.75,0.125,0.111111,0.833333,0.833333,1,0.171429,0.666667,23.7,0.28,0.55,4.8
1,0,0,1,0,0,1,0,0.570342,1,1,0.333333,0.666667,0,0,0,0.5,0.75,0.5,0.0666667,0,0,0,0.285714,0.111111,22.74,1.17,0.731,19.46
1,0,0,0.9,0.05,0.05,0.966667,0.0333333,0.60076,0,0.333333,0.333333,0.666667,1,0,0,1,1,0.125,0.222222,0.666667,0.666667,0,0.285714,0.111111,23.97,1.08,0.81,21.08
1,0,0,0.75,0.25,0,0.6,0.4,0.604563,1,1,0.666667,0.666667,0,0,0,1,1,0.125,0.166667,0.666667,0.75,1,0.285714,0.111111,17.25,0.91,0.76,11.93
0.25,0.75,0,0,0.95,0.5,1,0,0.532319,1,1,0.666667,0.333333,0,1,0,0.5,0.25,0.625,0.555556,0,0,1,0.2,0.111111,19.5,0.42,0.55,4.48
1,0,0,0,1,0,0.333333,0.666667,0.665399,0,0.333333,0.333333,0.333333,0,0,0,0.5,0.25,0.5,0.5,0,0,0,0.357143,0.333333,12.3,0.82,0.57,5.73
0,0,1,0.96,0.04,0,1,0,0.593156,0,0.333333,1,0.333333,0,1,1,1,0.75,0.1,0.111111,0.583333,0.583333,0,0.285714,0.166667,18.76,0.97,0.7259,13.21
0,0,1,0.96,0.04,0,1,0,0.676806,0,0.333333,0,1,0,0,0,0.5,0.5,0.25,0.333333,0,0,0,0.314286,0.111111,14.65,0.73,0.5,5.31
0.16,0.79,0.05,0.832,0.168,0,0.826667,0.173333,0.558935,1,1,0.666667,0.666667,0,0,0,0.5,0.75,0.625,0.444444,0,0,0,0.285714,0.333333,24.79,0.71,0.7218,12.65
0.16,0.79,0.05,0.664,0.336,0,0.826667,0.173333,0.524715,1,1,0.666667,0.666667,0,0,0,0.5,0.75,0.625,0.444444,0,0,0,0.285714,0.333333,26.45,0.79,0.7545,15.76
0,0,1,1,0,0,0,1,0.874525,0,0.333333,0,1,0,0,0,0.5,0.25,0.125,0.333333,0,0,0,0.714286,0.0555556,7.7,1.14,0.52,4.6
0,0,1,0.8,0,0.2,0,1,0.844106,0,0.333333,0,1,0,0,0,1,0.25,0.25,0.333333,0.333333,0.5,0,0.714286,0.0555556,7.44,1.508,0.745,8.36
0,0,1,1,0,0,0,1,0.882129,0,0.333333,0,1,0,0,0,1,0.25,0.25,0.333333,0.333333,0.5,0,0.714286,0.0555556,6.89,1.37,0.768,7.25
0,0,1,1,0,0,0.666667,0.333333,0.722433,0,0.333333,1,0.333333,0,0,0,1,0.75,0.125,0.111111,0.666667,0.5,0,0.285714,0.0555556,13.4,0.962,0.598,7.7
0,0,1,1,0,0,0.333333,0.666667,0.790875,0,1,1,0.333333,0,0,0,0.5,0.5,0.3125,0.333333,0,0,0,0.457143,0.222222,10.56,0.85,0.62,5.52
0,0,1,1,0,0,0.666667,0.333333,0.718631,0,0.333333,0.333333,0.333333,0,0,0,1,0.5,0.125,0.111111,0.5,0.5,0,0.8,0.111111,12.57,1.12,0.725,10.21
0,0.85,0.15,1,0,0,1,0,0.581749,0,0.333333,0.333333,0.666667,0,0,0,0.5,0.75,0.5,0.333333,0,0,1,0.428571,0.0555556,20.6,0.98,0.667,13.5
0,1,0,1,0,0,1,0,0.574144,0,0.333333,0.333333,0.666667,0,0,0,0.5,0.75,0.5,0.333333,0,0,1,0.428571,0.0555556,22.3,1,0.693,15.4
0,1,0,1,0,0,1,0,0.574144,0,0.333333,0.333333,0.666667,0,0,0,0.5,0.75,0.5,0.333333,0,0,1,0.428571,0.0555556,22.7,1.02,0.71,16.5
0,1,0,1,0,0,1,0,0.574144,0,0.333333,0.333333,0.666667,0,0,0,0.5,0.75,0.5,0.333333,0,0,1,0.428571,0.0555556,23.1,1.05,0.69,16.7
0,1,0,1,0,0,1,0,0.574144,0,0.333333,0.333333,0.666667,0,0,0,0.5,0.75,0.5,0.333333,0,0,1,0.428571,0.0555556,22.1,1,0.683,15.1
0,0,1,0.975,0,0.025,1,0,0.636122,0,0.333333,0.333333,0.333333,0,0,0,1,0.75,0.1875,0.111111,0.666667,0.5,0,0.514286,0.1,20.35,1.127,0.805,18.45
0,0,1,0.925,0,0.075,1,0,0.645627,0,0.333333,0.333333,0.333333,0,0,0,1,0.75,0.1875,0.111111,0.666667,0.5,0,0.514286,0.1,20.03,1.108,0.618,13.72
0.17,0.73,0.1,1,0,0,0.83,0.17,0.619772,0,0.333333,0.333333,0.333333,0,1,1,1,0.75,0.125,0.111111,1,0.333333,1,0.285714,0.666667,21.9,1.12,0.76,18.6
0.2,0.75,0.05,1,0,0,0.83,0.17,0.619772,0,0.333333,0.333333,0.333333,0,1,1,1,0.75,0.125,0.111111,1,0.333333,1,0.285714,0.666667,17.9,0.913,0.52,8.5
0.12,0.83,0.05,1,0,0,0.83,0.17,0.619772,0,0.333333,0.333333,0.333333,0,1,1,1,0.75,0.125,0.111111,1,0.333333,1,0.285714,0.666667,20.3,1.092,0.7,15.5
0,0.83,0.17,1,0,0,0.6,0.4,0.661597,0,0.666667,0.333333,0.333333,0,0,0,0.5,0.25,0.25,0.5,0,0,0,0.528571,1,19.9,1.1,0.707,15.1
0.2,0.8,0,0.5,0.5,0,1,0,0.479087,1,1,1,0.666667,0,1,1,1,0.5,0.125,0.111111,0.833333,0.5,0,0.285714,0.0777778,30.9,0.77,0.633,15.2
0,0,1,1,0,0,0.666667,0.333333,0.730038,0,0.333333,0.333333,0.333333,0,0,0,0.5,0.25,0.1875,0.444444,0,0,0,0.8,0.111111,10.83,1.13,0.71,8.5
0,0,1,1,0,0,0.666667,0.333333,0.730038,0,0.333333,0.333333,0.333333,0,0,0,0.5,0.25,0.1875,0.444444,0,0,0,0.8,0.111111,10.55,1.09,0.7,8
0,0,1,1,0,0,0.666667,0.333333,0.730038,0,0.333333,0.333333,0.333333,0,0,0,0.5,0.25,0.1875,0.444444,0,0,0,0.8,0.111111,8.73,1.16,0.6,6.1
0,0,1,1,0,0,0.666667,0.333333,0.730038,0,0.333333,0.333333,0.333333,0,0,0,0.5,0.25,0.1875,0.444444,0,0,0,0.8,0.111111,9.3,1.21,0.72,8.1
0,0,1,1,0,0,0.333333,0.666667,0.779468,0,0.333333,1,1,0,0,0,1,0.5,0.1875,0.222222,0.833333,1,0,0.8,0.111111,9.32,1.15,0.69,7.41
1,0,0,1,0,0,1,0,0.596958,0,0.333333,0.333333,0.333333,0,0,0,1,1,0.125,0.111111,0.5,0.25,0,0.285714,0.111111,15.61,0.863,0.655,8.82
1,0,0,1,0,0,1,0,0.596958,0,0.333333,0.333333,0.333333,0,0,0,1,1,0.125,0.111111,0.5,0.25,0,0.285714,0.111111,17.2,0.811,0.612,8.54
1,0,0,1,0,0,1,0,0.593156,0,0.333333,0.333333,0.333333,1,0,0,1,1,0.125,0.111111,0.5,0.25,0,0.285714,0.111111,18.96,1.03,0.72,14.04
1,0,0,1,0,0,1,0,0.593156,0,0.333333,0.333333,0.333333,1,0,0,1,1,0.125,0.111111,0.5,0.25,0,0.285714,0.111111,21.14,0.993,0.75,15.75
0,0,1,1,0,0,0.666667,0.333333,0.726236,0,0.333333,1,0.333333,0,0,0,1,0.75,0.125,0.111111,0.5,0.5,0,0.8,0.111111,15.3,1.2,0.7,12.85
0,0,1,1,0,0,0.666667,0.333333,0.730038,0,0.333333,1,0.333333,0,0,0,1,0.75,0.125,0.111111,0.5,0.5,0,0.8,0.111111,14.98,1.289,0.75,14.48
1,0,0,1,0,0,0.58,0.42,0.680608,0,0.333333,0.333333,0.333333,0,0,0,0.5,0.25,0.75,0.0555556,0,0,0,0.2,0.333333,8.2,0.898,0.6584,4.63
0,0,1,1,0,0,1,0,0.657795,0,0.333333,1,0.333333,1,1,1,0.5,0.75,0.5,0.333333,0,0,0,0.857143,0.111111,14.72,1.211,0.788,14.05
0,0,1,1,0,0,1,0,0.657795,0,0.333333,1,0.333333,1,1,1,0.5,0.75,0.5,0.333333,0,0,0,0.857143,0.111111,14.57,1.215,0.789,13.96
0,0,1,1,0,0,0.666667,0.333333,0.730038,0,0.333333,0.333333,0.333333,0,0,0,0.5,0.25,0.1875,0.444444,0,0,0,0.8,0.0222222,10.8,1.18,0.69,8.8
0,0,1,1,0,0,0.666667,0.333333,0.730038,0,0.333333,0.333333,0.333333,0,0,0,0.5,0.25,0.1875,0.444444,0,0,0,0.8,0.0222222,9.8,1.2,0.74,8.7
0,0,1,1,0,0,0.666667,0.333333,0.730038,0,0.333333,0.333333,0.333333,0,0,0,0.5,0.25,0.1875,0.444444,0,0,0,0.8,0.0222222,10.1,1.22,0.73,9
0,0,1,1,0,0,0.666667,0.333333,0.730038,0,0.333333,0.333333,0.333333,0,0,0,0.5,0.25,0.1875,0.444444,0,0,0,0.8,0.0222222,11.9,1.23,0.72,10.5
0,0,1,1,0,0,0.666667,0.333333,0.730038,0,0.333333,0.333333,0.333333,0,0,0,0.5,0.25,0.1875,0.444444,0,0,0,0.8,0.0222222,11.4,1.2,0.69,9.4
0,0,1,1,0,0,0.666667,0.333333,0.730038,0,0.333333,0.333333,0.333333,0,0,0,0.5,0.25,0.1875,0.444444,0,0,0,0.8,0.0222222,12,1.21,0.67,9.8
0,0,1,1,0,0,0.666667,0.333333,0.722433,0,0.666667,0.333333,0.333333,0,0,0,0.5,0.75,0.375,0.277778,0,0,1,0.457143,0.111111,9.06,1.02,0.572,5.3
0,0,1,1,0,0,0.666667,0.333333,0.726236,0,0.666667,0.333333,0.666667,0,0,0,0.5,0.75,0.625,0.333333,0,0,0,0.8,0.0666667,12.2,1.183,0.67,9.67
0,0,1,1,0,0,0.666667,0.333333,0.726236,0,0.666667,0.333333,0.666667,0,0,0,0.5,0.75,0.625,0.333333,0,0,0,0.8,0.0666667,12.01,1.175,0.73,10.3
0,0,1,1,0,0,0.666667,0.333333,0.726236,0,0.666667,0.333333,0.666667,0,0,0,0.5,0.75,0.625,0.333333,0,0,0,0.8,0.0666667,11.98,1.256,0.77,11.59
0,0,1,1,0,0,0.666667,0.333333,0.726236,0,0.666667,0.333333,0.666667,0,0,0,0.5,0.75,0.625,0.333333,0,0,0,0.8,0.0666667,12.01,1.282,0.75,11.55
0,0,1,1,0,0,0.666667,0.333333,0.726236,0,0.333333,0.333333,0.666667,0,0,0,0.5,0.75,0.625,0.333333,0,0,0,0.8,0.0666667,13.06,1.246,0.75,12.2
0,0,1,1,0,0,0.666667,0.333333,0.726236,0,0.333333,0.333333,0.666667,0,0,0,0.5,0.75,0.625,0.333333,0,0,0,0.8,0.0666667,12.93,1.225,0.75,11.88
0,0,1,1,0,0,0.666667,0.333333,0.726236,0,0.333333,0.333333,0.666667,0,0,0,0.5,0.75,0.625,0.333333,0,0,0,0.8,0.0666667,12.99,1.235,0.72,11.55
0,0,1,1,0,0,0.666667,0.333333,0.726236,0,0.333333,0.333333,0.666667,0,0,0,0.5,0.75,0.625,0.333333,0,0,0,0.8,0.0666667,12.54,1.217,0.73,11.13
0,0,1,1,0,0,0.666667,0.333333,0.726236,0,0.333333,0.333333,0.666667,0,0,0,0.5,0.75,0.625,0.333333,0,0,0,0.8,0.0666667,13.44,1.22,0.66,10.78
0,0,1,1,0,0,0.666667,0.333333,0.726236,0,0.333333,0.333333,0.666667,0,0,0,0.5,0.75,0.625,0.333333,0,0,0,0.8,0.0666667,12.7,1.23,0.67,10.4
0,0,1,1,0,0,0.666667,0.333333,0.726236,0,0.333333,0.333333,0.666667,0,0,0,0.5,0.75,0.625,0.333333,0,0,0,0.8,0.0666667,10.17,1.315,0.7,9.38
0,0,1,1,0,0,0.666667,0.333333,0.726236,0,0.666667,0.333333,0.666667,0,0,0,0.5,0.75,0.625,0.333333,0,0,0,0.8,0.0666667,11.64,1.283,0.79,11.8
0,1,0,0,1,0,1,0,0.547529,1,1,0.666667,0.666667,1,0,1,0.5,0.5,0.625,1,0,0,1,0.2,0.111111,20,0.474,0.648,6.1
0,1,0,0,1,0,1,0,0.547529,1,1,0.666667,0.666667,1,0,1,0.5,0.5,0.625,1,0,0,1,0.2,0.111111,20.8,0.481,0.632,6.3
0,1,0,0,1,0,1,0,0.547529,1,1,0.666667,0.666667,1,0,1,0.5,0.5,0.625,1,0,0,1,0.2,0.111111,19.7,0.49,0.648,6.2
0,1,0,0,1,0,1,0,0.547529,1,1,0.666667,0.666667,1,0,1,0.5,0.5,0.625,1,0,0,1,0.2,0.111111,21.3,0.476,0.612,6.2
0,1,0,0,1,0,1,0,0.547529,1,1,0.666667,0.666667,1,0,1,0.5,0.5,0.625,1,0,0,1,0.2,0.111111,19,0.545,0.61,6.3
0,0.95,0.05,1,0,0,1,0,0.58327,0,0.666667,0.333333,0.333333,0,0,0,0.5,0.75,0.5,0.666667,0,0,1,0.428571,0.111111,21.66,0.94,0.6337,12.94
0,0.85,0.15,1,0,0,1,0,0.595057,0,0.666667,0.333333,0.333333,0,0,0,0.5,0.75,0.5,0.666667,0,0,1,0.285714,0.111111,21.51,0.98,0.6439,13.55
0,0.7,0.3,1,0,0,1,0,0.601521,0,0.666667,0.333333,0.333333,0,0,0,0.5,0.75,0.5,0.666667,0,0,1,0.285714,0.111111,20.33,1.03,0.7248,15.21
1,0,0,1,0,0,1,0,0.614068,0,0.333333,0.333333,0.333333,0,0,0,0.5,0.25,0.625,0.333333,0,0,0,0,0,18.17,0.82,0.3329,4.74
0,0,1,1,0,0,0,1,0.878327,0,0.333333,0,1,0,0,0,0,0.75,0.25,0.333333,0,0,0,0.714286,0.0555556,5.38,1.29,0.71,4.92
0,0,1,1,0,0,0,1,0.878327,0,0.333333,0,1,0,0,0,0.5,0.75,0.25,0.333333,0,0,0,0.714286,0.0555556,5.91,1.31,0.77,5.94
1,0,0,0.75,0.25,0,1,0,0.448669,0,1,0.666667,0.666667,0,0,0,1,0.75,0.625,0.333333,0.666667,0.5,0,0.342857,0.222222,20.65,0.9578,0.7416,14.67
1,0,0,1,0,0,1,0,0.593156,0,1,0.666667,0.666667,0,0,0,1,0.75,0.625,0.333333,0.666667,0.5,0,0.4,0.222222,23.8,0.7454,0.7856,13.93
1,0,0,0,1,0,1,0,0.513308,1,1,0.666667,0.666667,1,0,0,1,1,0.125,0.166667,0.666667,0.75,0,0.285714,0.111111,4.52,0.15,0.38,0.26
0.9,0,0.1,1,0,0,1,0,0.6121673,1,1,0.666667,0.666667,0,1,1,1,1,0.125,0.166667,0.666667,0.666667,1,0.285714,0.111111,18.57,1,0.744,13.81
1,0,0,0,1,0,1,0,0.501901,1,1,0.666667,0.666667,0,0,0,1,1,0.125,0.166667,0.666667,0.666667,1,0.285714,0.111111,18.65,0.62,0.55,6.36
0,0,1,1,0,0,0.666667,0.333333,0.714829,0,1,1,0.666667,0,0,0,1,0.75,0.125,0.0555556,0.5,0.5,0,0.457143,0.0555556,15.39,1.13,0.8009,13.93
1,0,0,1,0,0,1,0,0.570342,0,0.666667,0.333333,0.333333,0,0,0,0.5,0.25,0.25,0.166667,0,0,0,0.2,0.333333,20.9,0.99,0.65,13.5
1,0,0,0.5,0.5,0,1,0,0.448669,1,1,0.666667,0.666667,0,0,0,1,0.25,0.75,0.666667,0.416667,0.5,0,0.314286,0.5,24.9,0.75,0.659,12.3
1,0,0,1,0,0,1,0,0.570342,0,0.333333,0.333333,0.333333,0,0,0,0.5,0.25,0.75,0.666667,0,0,0,0.2,0.333333,20.31,1.036,0.723,15.23
1,0,0,1,0,0,1,0,0.589354,0,0.333333,0.333333,1,0,0,0,0.5,0.25,0.8125,0.333333,0,0,0,0.285714,0.111111,20.2,0.985,0.54,10.5
0,0,1,1,0,0,0.666667,0.333333,0.722433,0,0.333333,0.333333,0.333333,1,0,0,1,0.75,0.125,0.111111,0.666667,0.666667,0,0.342857,0.111111,14.47,1.17,0.6737,11.4
0,0,1,1,0,0,0.666667,0.333333,0.722433,0,0.333333,0.333333,0.333333,1,0,0,1,0.75,0.125,0.111111,0.666667,0.666667,0,0.371429,0.111111,14.4,1.13,0.6818,11.11
0,1,0,0,1,0,1,0,0.528517,1,1,1,0.666667,0,1,0,1,0.75,0.25,0.0555556,0.833333,0.5,0,0.2,0.111111,19.55,0.5,0.6371,6.25
0,0,1,1,0,0,0.666667,0.333333,0.722433,0,0.333333,0.333333,0.333333,1,0,0,1,0.75,0.125,0.111111,0.666667,0.75,1,0.571429,0.111111,15.22,1.2,0.7589,13.86
0,1,0,0,1,0,1,0,0.532319,1,1,0.666667,0.666667,0,0,0,0.5,0.75,0.625,0.333333,0,0,0,0.271429,0.166667,19.95,0.408,0.5822,4.74
0,1,0,0,1,0,1,0,0.532319,1,1,0.666667,0.666667,0,0,0,0.5,0.75,0.625,0.333333,0,0,0,0.271429,0.166667,18.98,0.386,0.5938,4.36
0,1,0,0,1,0,1,0,0.532319,1,1,0.666667,0.666667,0,0,0,0.5,0.75,0.625,0.333333,0,0,0,0.271429,0.166667,18.57,0.381,0.578,4.09
0,1,0,0,1,0,1,0,0.532319,1,1,0.666667,0.666667,0,0,0,0.5,0.75,0.625,0.333333,0,0,0,0.271429,0.166667,17.37,0.386,0.5744,3.85
0,1,0,0,1,0,1,0,0.532319,1,1,0.666667,0.666667,0,0,0,0.5,0.75,0.625,0.333333,0,0,0,0.271429,0.166667,16.98,0.351,0.5588,3.38
0,1,0,0,1,0,1,0,0.532319,1,1,0.666667,0.666667,0,0,0,0.5,0.75,0.625,0.333333,0,0,0,0.271429,0.166667,22.24,0.493,0.6519,7.15
0,1,0,0,1,0,1,0,0.532319,1,1,0.666667,0.666667,0,0,0,0.5,0.75,0.625,0.333333,0,0,0,0.271429,0.166667,21.95,0.478,0.646,6.78
0,1,0,0,1,0,1,0,0.532319,1,1,0.666667,0.666667,0,0,0,0.5,0.75,0.625,0.333333,0,0,0,0.271429,0.166667,21.19,0.475,0.637,6.42
0,1,0,0,1,0,1,0,0.532319,1,1,0.666667,0.666667,0,0,0,0.5,0.75,0.625,0.333333,0,0,0,0.271429,0.166667,21.35,0.481,0.6074,6.25
0,1,0,0,1,0,1,0,0.532319,1,1,0.666667,0.666667,0,0,0,0.5,0.75,0.625,0.333333,0,0,0,0.271429,0.166667,19.74,0.484,0.6231,5.96
0.15,0.8,0.05,1,0,0,1,0,0.593156,0,0.333333,0,1,1,0,0,1,0.75,0.125,0.111111,0.666667,0.5,1,0.285714,0.333333,24.23,1.01,0.78,19.11
0.1615,0.7885,0.05,1,0,0,0.83,0.17,0.562738,0,0.666667,1,0.666667,1,0,0,1,0.75,0.075,0.0666667,0.666667,0.666667,1,0.428571,0.111111,24.4,1.208,0.8076,23.62
0.08,0.92,0,1,0,0,1,0,0.581749,0,0.666667,1,0.333333,0,0,0,1,0.75,0.375,0.333333,0.416667,0.5,0,0.428571,0.166667,24.72,1.15,0.7839,22.34
0.02,0.98,0.05,1,0,0,1,0,0.589354,0,1,0,1,0,0,1,1,0.75,0.25,0.277778,0.833333,0.5,1,0.314286,0.222222,25.67,1.178,0.8647,26.15
0.14,0.8,0.06,1,0,0,1,0,0.589354,1,1,0,0.666667,1,0,1,1,0.75,0.125,0.111111,0.833333,0.5,1,0.285714,0.333333,24.52,1.18,0.8427,24.38
0.14,0.8,0.06,1,0,0,1,0,0.589354,1,1,0,0.666667,1,0,1,1,0.75,0.125,0.111111,0.833333,0.5,1,0.285714,0.333333,23.86,1.18,0.8415,23.7
0.14,0.8,0.06,1,0,0,1,0,0.589354,1,1,0,0.666667,1,0,1,1,0.75,0.125,0.111111,0.833333,0.5,1,0.285714,0.333333,24.58,1.18,0.8352,24.23
0.14,0.8,0.06,1,0,0,1,0,0.589354,1,1,0,0.666667,1,0,1,1,0.75,0.125,0.111111,0.833333,0.5,1,0.285714,0.333333,24.71,1.17,0.8389,24.25
0,0.8,0.2,1,0,0,0.6,0.4,0.676806,1,1,0,0.666667,1,0,1,0.5,0.75,0.625,0.333333,0,0,1,0.285714,0.111111,24.74,1.18,0.7375,21.53
0,0.8,0.2,1,0,0,0.6,0.4,0.676806,1,1,0,0.666667,1,0,1,0.5,0.75,0.625,0.333333,0,0,1,0.285714,0.111111,24.74,1.19,0.7633,22.47
0,0.8,0.2,1,0,0,0.6,0.4,0.676806,1,1,0,0.666667,1,0,1,0.5,0.75,0.625,0.333333,0,0,1,0.285714,0.111111,24.4,1.17,0.7267,20.75
0,0.8,0.2,1,0,0,0.6,0.4,0.676806,1,1,0,0.666667,1,0,1,0.5,0.75,0.625,0.333333,0,0,1,0.285714,0.111111,24.78,1.19,0.7705,22.72
0,1,0,1,0,0,1,0,0.580608,0,0.666667,1,0.333333,0,0,0,1,0.75,0.125,0.0555556,0.833333,0.583333,1,0.285714,0.277778,25.31,1.15,0.8307,23.76
0,0.8,0.2,0.5,0.5,0,1,0,0.463878,1,1,0.666667,1,0,1,1,1,0.75,0.1875,0.111111,0.583333,0.75,1,0.242857,0.333333,30.65,0.84,0.81,21.02
0.3,0.7,0.5,0.5,0,0,1,0,0.48289,1,1,0.666667,0.666667,0,0,0,1,0.75,0.125,0.0555556,0.666667,0.666667,1,0.285714,0.111111,30.3,0.79,0.755,18
0.3,0.7,0.5,0.5,0.5,0,1,0,0.48289,0,1,0.666667,0.666667,1,0,1,1,0.75,0.125,0.111111,0.666667,0.666667,1,0.285714,0.111111,31,0.841,0.78,20.41
1.0043,0,0.002923797,1.00626,0,0.005486941,1.00382,0.003147353,0.613444,0.995928,0.999876,1.00039,0.663897,0.002300944,0.001924168,0,0.507021,0.753411,0.501424,0.223279,0,0.002213607,0.995726,0.290374,0.0226357,21.15,1.028,0.783,12.02
0.001906602,0.996905,0.00114813,0.996081,0,0,1.0021,0,0.568782,0,0.336361,0.333761,0.66902,1.00048,0.00092566,0.995887,0.503462,0.99741,0.378994,0.219811,0.004236965,0,1.00126,0.357774,0.225087,25.91,1.165,0.831,25.09
0,0.003557982,0.995728,1.00421,0.000200651,0,0.667943,0.3344,0.719777,0.003168034,0.326322,0.33298,1.00007,0.005141891,0.999691,0.000755585,0.495749,0.751524,0.351433,0.278734,0,0.003649169,0,0.429623,0.0565662,13.34,1.05,0.62,8.7
0.999059,0,0.005642383,0.001746574,1.00285,0,0.333381,0.666848,0.667954,0,0.335125,0.335696,0.33148,0.000623382,0.004655863,0.004645007,0.49962,0.253315,0.502276,0.494186,0.003721066,0.004026897,0.003703885,0.355092,0.333984,12.3,0.82,0.57,5.73
0.155917,0.849088,0.000233003,1.00112,0.002046399,0.00100633,0.845499,0.153019,0.552386,0,0.333481,0.333151,0.330999,0,0.004047519,0.006228193,0.999362,0.505209,0.625,0.496796,0.832688,0.4951,0,0.289082,0.669296,23.08,1.07,0.62,15.46
0,0.994076,0.006545704,0.002872384,1.0023,0.000852288,0.998256,0.00147161,0.540875,1.00287,1.0002,0.662049,1.0021,0.999373,1.00439,1.00324,0.49928,0.752192,1.0011,0.665252,0,0.003731093,1.00217,0.228678,0.10957,24.91,0.84,0.7076,14.81
0.950194,0.0473506,0,1.00056,0.001483545,0.001183498,0.96746,0.0311948,0.614652,1.00719,0.667157,0.332996,0.336571,1.003,0,1.00194,0.999611,0.751112,0.131264,0.0551236,0.663183,0.19754,0.999613,0.38392,0.0344934,24.07,1.131,0.768,20.93
0.906817,0.0972982,0,1.00223,0.001756247,0,0.931287,0.0644087,0.623326,0.996509,0.665621,0.334682,0.334923,1.00268,0.001495679,0.995339,0.996095,0.75189,0.125595,0.0562643,0.666151,0.199139,1.00147,0.389762,0.0346162,23.32,1.06,0.713,17.67
0.150949,0.855288,0,1.00139,0.001797535,0.003744073,0.853975,0.148161,0.613664,0,0.337905,0.328448,0.334777,0.998687,0.002293698,0.002937506,0.501844,0.754069,0.754271,0.334927,0.000947246,0.003569504,1.00251,0.282114,0.668372,22.89,1.123,0.756,19.43
0,0.997591,0.003862746,0.999612,0.002409584,0,1.00192,0,0.590887,0,0.668947,0.336845,0.33646,0.997686,0.996846,0,0.999503,1.00091,0.0409328,0.105981,0.668043,0.499946,0.995817,0.42369,0.113716,23.83,1.05,0.715,17.89
0,0.997362,0.002113639,1.00404,0.00296812,0.000477164,1.00498,0.002554527,0.58505,0.999728,0.661189,0.336047,0.33394,1.00054,0.001637714,1.00253,0.499919,0.248839,0.496243,0.33582,0.000541,0.003410624,0.000857172,0.421993,0.111239,24.9,1.13,0.75,21.18
0.170613,0.831111,0,0.995232,0,0,0.834124,0.167627,0.609912,0.997493,0.672813,0.332788,0.335928,0.000929135,0,0.001887427,0.494116,0.749209,0.752062,0.331591,0.0045829,0,1.00345,0.286002,0.555293,23.23,1.18,0.7335,20.54
0.000294016,1.00226,0.001798715,0.004286896,1.00288,0,1.00085,0.002217654,0.535621,0.000897273,0.332627,0.331326,0.330688,1.0072,0,0.002095101,0.996779,0.748408,0.125481,0.114285,0.833544,0.833972,1.00103,0.174675,0.665709,23.7,0.28,0.55,4.8
0.999674,0.00132269,0.002267915,0.993665,0,0.00170846,1.00027,0.00378068,0.571205,1.00056,1.00572,0.332828,0.666089,0,0,0,0.499356,0.751401,0.495024,0.0670282,0,0,0,0.294955,0.108183,22.74,1.17,0.731,19.46
1.00051,0.000269063,0,0.900586,0.0501455,0.04791234,0.965342,0.03194467,0.602917,0,0.335755,0.333468,0.66591,1.00236,0.004378059,0.003881636,1.00027,1.00222,0.125255,0.224438,0.668422,0.666085,0.006498492,0.28557,0.111172,23.97,1.08,0.81,21.08
0.999639,0,0,0.750736,0.244913,0,0.601999,0.401882,0.606528,0.996091,1.00052,0.667885,0.666506,0.00221944,0.001298551,0.002017701,0.999835,0.999095,0.1238873,0.166607,0.670438,0.753536,0.999414,0.28514,0.10763,17.25,0.91,0.76,11.93
0.24698,0.752528,0,0,0.955273,0.503446,1.00306,0.002137166,0.535765,1.00019,0.999299,0.667082,0.333254,0,1.00049,0,0.503705,0.247993,0.624394,0.555628,0,0.000133739,1.00194,0.203875,0.111134,19.5,0.42,0.55,4.48
1.00202,0.000482358,0.004462297,0,1.00111,0.001533907,0.332586,0.667356,0.658657,0.00043628,0.333134,0.335835,0.329363,0.000726063,0.000558072,0.001561383,0.496386,0.24993,0.496712,0.499724,0,0.000686665,0,0.356584,0.335161,12.3,0.82,0.57,5.73
0,0,1.00373,0.961626,0.0427789,0,1.00145,0.002776397,0.588842,0.000384292,0.327142,0.999263,0.333657,0,0.997392,1.00289,1.00399,0.750351,0.0969592,0.110169,0.581687,0.577663,0.002614024,0.288577,0.169766,18.76,0.97,0.7259,13.21
0.003125021,0,0.99599,0.962571,0.0387173,0,1.00236,0,0.681536,0.006163799,0.337078,0.004067203,0.995809,0.002308072,0.003021944,0,0.502238,0.499312,0.247501,0.331512,0,0,0,0.314021,0.11835,14.65,0.73,0.5,5.31
0.159129,0.792917,0.0513852,0.83278,0.174791,0.000313864,0.827744,0.172257,0.560882,0.999092,0.993556,0.664489,0.671664,0.00335724,0.001201797,0.001136431,0.498603,0.751207,0.624658,0.438872,0.001502631,0.002270671,0,0.29257,0.331474,24.79,0.71,0.7218,12.65
0.16208,0.789169,0.0494777,0.670846,0.338415,0,0.828942,0.1729345,0.526932,1.00163,0.993268,0.66771,0.6696,0.00023934,0.001523871,0.003576373,0.503209,0.747316,0.623565,0.449363,0,0,0,0.291611,0.334539,26.45,0.79,0.7545,15.76
0.000622485,0.001781588,1.00092,1.00378,0,0,0.001907923,1.00204,0.874984,0.000690296,0.334228,0,1.00467,0.003966782,0,0.002799133,0.502337,0.250223,0.12969,0.333818,0.004644177,0,0.001391109,0.716363,0.0533699,7.7,1.14,0.52,4.6
0,6.95E-05,1.00098,0.803476,0.004189234,0.200496,0,0.998016,0.839823,0,0.338736,0.005162279,1.00149,0.007405363,0,0.001212642,1.00312,0.248786,0.25438,0.333254,0.328338,0.49969,0,0.717568,0.0595802,7.44,1.508,0.745,8.36
0,0,1.00206,0.994157,0,0.003799835,0.003009658,1.00714,0.881872,0,0.333068,0,1.00361,0.000832776,0.002626995,0.001723393,1.00317,0.249515,0.250712,0.338382,0.340471,0.50127,0,0.719828,0.0608639,6.89,1.37,0.768,7.25
0,0,0.998926,1.00309,0.002679847,0,0.661217,0.329754,0.723619,0,0.338581,0.999648,0.335183,0,0.000140104,0.002020092,1.00244,0.751397,0.124903,0.109625,0.668172,0.501512,0,0.287001,0.05735,13.4,0.962,0.598,7.7
0,0.000339391,0.997957,1.00287,0,0.001784614,0.329519,0.668363,0.788439,0.001159634,0.9967,1.00415,0.330724,0,0,0,0.495576,0.499829,0.308143,0.332784,0.001534416,0,0,0.454006,0.225545,10.56,0.85,0.62,5.52
0.000897452,0,0.998288,0.997713,0.000139563,0.001581481,0.669385,0.333872,0.717403,0,0.3328,0.331632,0.332564,0,0.003658958,0,0.996268,0.497526,0.123471,0.106458,0.505429,0.500175,0.002701231,0.796591,0.111195,12.57,1.12,0.725,10.21
0,0.85077,0.148061,1.00108,0.001798917,0,0.999619,0,0.580749,0.001617659,0.33321,0.331832,0.664877,0.000279619,0.000449854,0,0.498199,0.750216,0.500454,0.331983,0.0011597,0.004765288,1.00113,0.429495,0.0583627,20.6,0.98,0.667,13.5
0,0.995059,0.003620538,1.00444,0.00078411,0.00130854,0.998816,0,0.57254,0.00284198,0.332129,0.330805,0.662668,0.00102611,0.000952978,0.00243961,0.497486,0.749091,0.499857,0.335335,0.003568973,0.00169033,1.00064,0.430138,0.0577235,22.3,1,0.693,15.4
0.003733477,0.996639,0,1.00954,0,0.001646731,0.99656,0,0.579458,0,0.334704,0.334297,0.669356,0.005536041,0.006798728,0.002773285,0.503151,0.748234,0.501261,0.331897,0.003155447,0.003381469,0.999627,0.43177,0.0522858,22.7,1.02,0.71,16.5
0,1.00302,0,0.994579,0,0,0.997263,0,0.572923,0,0.334997,0.335596,0.669768,0,0,0,0.500824,0.754425,0.501362,0.332884,0,0,0.998109,0.433726,0.0552833,23.1,1.05,0.69,16.7
0.000163625,0.995112,0.00278401,0.99088,0,0.000531724,1.00306,0.001070767,0.575025,0,0.334751,0.333218,0.667515,0,0.002294902,0,0.502451,0.753702,0.49697,0.337626,0.000890307,0,0.997356,0.429987,0.0518535,22.1,1,0.683,15.1
0.002348417,0.000969568,0.996588,0.97703,0,0.024154,1.00849,0,0.634697,0.001185775,0.338282,0.333073,0.333243,0,0,0,0.998261,0.747378,0.190343,0.113865,0.665208,0.499937,0.000232699,0.512947,0.10547,20.35,1.127,0.805,18.45
0,0.001208951,1.0021,0.923094,0,0.0775203,0.996049,0.002526093,0.650513,0.002994435,0.32952,0.333731,0.33438,0,0,0.002202,0.999984,0.748197,0.185983,0.109537,0.669041,0.496642,0,0.513587,0.100217,20.03,1.108,0.618,13.72
0.173253,0.730647,0.103402,0.998474,0.001368317,0,0.834116,0.170869,0.621372,0,0.330971,0.333985,0.332665,0.000605279,1.00021,0.999884,0.997866,0.746356,0.128217,0.108808,1.00713,0.332703,1.00322,0.283583,0.672524,21.9,1.12,0.76,18.6
0.196261,0.751704,0.0466047,0.99947,0.001285197,0,0.828634,0.172043,0.615947,0.000669456,0.330116,0.33062,0.333114,0,0.999833,0.997442,1.00052,0.751896,0.126359,0.112342,0.996124,0.335497,1.00135,0.286586,0.663943,17.9,0.913,0.52,8.5
0.116924,0.830476,0.0475593,1.00449,0.000313167,0,0.829716,0.171027,0.6267556,0,0.33242,0.330014,0.332921,0,1.00183,1.00284,0.999159,0.755019,0.128684,0.107423,1.00049,0.329739,1.00259,0.285969,0.668216,20.3,1.092,0.7,15.5
0,0.8333,0.173174,0.996157,0.002529903,0,0.601628,0.396573,0.662353,0,0.669495,0.33137,0.329625,0.000623359,0.002821884,0,0.502,0.250942,0.253701,0.503658,0.000871598,0.003528161,0,0.530027,0.999313,19.9,1.1,0.707,15.1
0.19726,0.798565,0.002392614,0.502736,0.503262,0,1.00176,0,0.478449,0.998926,1.00069,1.00005,0.668722,0.003549579,1.00415,0.999472,0.997429,0.49985,0.12457,0.111803,0.830931,0.499674,0,0.285164,0.0799595,30.9,0.77,0.633,15.2
0.001735884,0.000737187,0.99953,1.00143,0,0,0.671313,0.333368,0.731624,0.001860962,0.333743,0.332198,0.326571,0.006310451,0.002033327,0,0.4997267,0.245884,0.185503,0.445816,0,0.001061909,0.003569555,0.803368,0.110173,10.83,1.13,0.71,8.5
0.001358797,0,1.00136,0.998271,0.002251503,0.001052903,0.664975,0.332345,0.731793,0,0.331328,0.33712,0.339198,0.00097159,0.001061076,0,0.490953,0.243679,0.1855317,0.443075,0,0,0.00359105,0.797661,0.113693,10.55,1.09,0.7,8
0,0.004779366,1.00046,1.00279,0,0.000870819,0.663426,0.333044,0.730452,0.000151157,0.329427,0.329113,0.330237,0,0.001513327,0,0.501192,0.246055,0.190796,0.441103,0,0,0.000394388,0.799194,0.107933,8.73,1.16,0.6,6.1
0.004505781,0,0.998612,1.00295,0,0.003777158,0.664598,0.332771,0.732189,0.000714695,0.332878,0.336838,0.327303,0,0.001036054,0.001108881,0.501512,0.25195,0.192057,0.438017,0,0,0.003420792,0.802058,0.116261,9.3,1.21,0.72,8.1
0.001959549,0,1.00516,1.00672,0.001357466,0,0.335503,0.662721,0.777373,0,0.335161,1.00359,0.99751,0.000436622,0,0,1.0029,0.50173,0.189784,0.221609,0.834675,0.999616,0,0.801884,0.104174,9.32,1.15,0.69,7.41
0.99788,0.003840633,0,0.995637,0.004191788,0.002779707,0.995059,0,0.594443,0,0.331178,0.336982,0.335381,0.001979456,0.000581314,0.003691798,1.00352,0.99554,0.118381,0.106796,0.498892,0.244325,0,0.281801,0.108452,15.61,0.863,0.655,8.82
1.00171,0,0,1.00115,0.003817906,0.0002038,0.99428,0.002839371,0.592915,0.001332972,0.333668,0.333012,0.334795,0.005753992,0.002989516,0,1.00036,1.00031,0.123176,0.107701,0.500981,0.252489,0,0.285264,0.113368,17.2,0.811,0.612,8.54
0.993009,0,0,1.00109,0.004363387,0.002807935,1.00527,0,0.588877,0.002350868,0.323788,0.335656,0.33274,0.997614,0.001798795,0,1.00029,1.00483,0.122554,0.11209,0.50496,0.254995,0,0.291285,0.112646,18.96,1.03,0.72,14.04
1.00007,0,0.000633127,1.00342,0,0,1.0007,0,0.588806,0,0.331764,0.328854,0.329572,0.996139,0,0,0.999187,0.995019,0.126459,0.115407,0.497635,0.251206,0,0.284865,0.110331,21.14,0.993,0.75,15.75
0,0,1.00493,0.999398,0.001594047,0,0.669232,0.333247,0.727819,0,0.338832,1.00326,0.334401,0.003556602,0.007062229,0,1.00092,0.74714,0.12589,0.104617,0.499099,0.498692,0.004936255,0.793138,0.109928,15.3,1.2,0.7,12.85
0.000500429,0,1.0021,0.995487,0.000117954,1.53E-05,0.66243,0.334834,0.729907,0.000191689,0.336395,0.998359,0.33637,0.004807534,0,0,1.00367,0.757253,0.120007,0.105735,0.500211,0.499071,0,0.801388,0.104687,14.98,1.289,0.75,14.48
0.996107,0.004055856,0,0.992581,0.001373612,0.000784666,0.5785,0.419307,0.682,0.002100989,0.332657,0.3334974,0.332016,0,0,0,0.501981,0.249705,0.750412,0.0563792,0.006039416,0,0,0.198953,0.328643,8.2,0.898,0.6584,4.63
0.000684272,0.001456653,1.00437,0.996069,0.001012614,0,1.00452,0.002768784,0.658329,0.001600982,0.332666,1.0025,0.33161,1.00164,0.997643,0.998823,0.500783,0.748221,0.499855,0.333798,6.45E-05,0.00069571,0.001656329,0.853528,0.108021,14.72,1.211,0.788,14.05
0.001375627,0,0.996171,0.997298,0.000630075,0.002733958,0.998463,0.000721695,0.657167,0,0.332869,1.0033,0.333037,0.997475,1.00343,0.999931,0.497988,0.752038,0.491207,0.332859,0.001177126,0,0,0.856837,0.108049,14.57,1.215,0.789,13.96
0,0,0.998157,1.00368,0,0.000446897,0.666315,0.338255,0.727713,0,0.328896,0.329654,0.332131,0.000386422,0,0.001623249,0.501017,0.250102,0.185366,0.442742,0.000270006,0,0,0.795499,0.0253105,10.8,1.18,0.69,8.8
0,0.000567392,0.995996,0.999318,0.000324599,0,0.671305,0.335017,0.724907,0.002013207,0.333789,0.333457,0.338347,0.006318444,0.000369071,0,0.503174,0.252323,0.185372,0.443971,0.000481541,0,0,0.802637,0.02434625,9.8,1.2,0.74,8.7
0.002474365,0.001558407,1.00256,1.0058,0,0.001631155,0.659927,0.335148,0.726725,0.004564438,0.333616,0.334945,0.33192,0.002042111,0.001545132,0,0.506053,0.247121,0.189778,0.441117,0,0,0,0.800554,0.02174,10.1,1.22,0.73,9
0.002549072,0.000910179,1.00202,1.00099,0.002026136,0.002807987,0.665564,0.331315,0.731958,0.003127008,0.33195,0.330795,0.330554,0.001846554,0,0,0.50323,0.250024,0.18615,0.449143,0.002380414,0.004796988,0,0.79665,0.0202477,11.9,1.23,0.72,10.5
0,0.000334016,1.00223,1.00152,0.000912174,0.004004669,0.669703,0.333814,0.726126,0,0.335263,0.332656,0.334881,0.003481848,0,0,0.495059,0.24876,0.189198,0.444106,0,0,0.000764606,0.803023,0.0192981,11.4,1.2,0.69,9.4
0,0.001063504,1.0002,1.00061,0.001362939,0.000243383,0.66391,0.336277,0.728762,0.001135061,0.332177,0.329724,0.340634,0.000776009,0,0.00081448,0.501608,0.251922,0.1836,0.443086,0.00504794,0.005436197,0.001812176,0.796731,0.0241573,12,1.21,0.67,9.8
0,0.004184308,1.00191,0.997613,0.000556671,0,0.670162,0.336555,0.722955,0,0.666946,0.330189,0.333941,0.005317493,0,0.002637715,0.501672,0.749329,0.376134,0.276144,0.000228977,0,1.00097,0.459129,0.109613,9.06,1.02,0.572,5.3
0,0.004738506,0.993288,0.999016,0.001312649,0.000208937,0.665275,0.332418,0.72978,0,0.668089,0.332958,0.662381,0.002418094,0.006958953,0,0.499557,0.754304,0.626978,0.33476,2.40E-05,0.002072477,0.000968509,0.795837,0.0680238,12.2,1.183,0.67,9.67
0,0.007241492,1.00016,0.999113,0.000718003,0.000925329,0.666963,0.337359,0.72675,0.003748909,0.665508,0.332741,0.668909,0,0,0.00201008,0.50066,0.751231,0.631881,0.335244,0.000607807,0,0.007309053,0.798369,0.0661819,12.01,1.175,0.73,10.3
0,0.0021457,0.998462,1.00174,0,0.001331394,0.662573,0.334844,0.721333,0.005074048,0.664889,0.333815,0.667106,0,0,0,0.498505,0.755506,0.620896,0.338459,0,0.001681238,0,0.805207,0.0724987,11.98,1.256,0.77,11.59
0.002050472,0.003838821,0.998127,0.994428,0.003201005,0.006395303,0.666829,0.332352,0.724992,0.000525799,0.663338,0.338576,0.660329,0.000952511,0,0.001005857,0.504009,0.747348,0.620071,0.336756,0.00358725,0,0.005923663,0.80101,0.0676975,12.01,1.282,0.75,11.55
0,0.001274677,1.00235,1.00051,0.000121335,0.003549508,0.666407,0.334172,0.723102,0,0.329679,0.335108,0.663996,0.003255326,0,0,0.504375,0.751767,0.625929,0.335534,0,0.000684026,0.003653521,0.803495,0.066131,13.06,1.246,0.75,12.2
0.001303505,0,1.00098,0.998107,0.001987557,0,0.665623,0.328487,0.722019,0,0.338192,0.333852,0.670059,0.002756024,0.002340561,0.004869462,0.498403,0.75215,0.624253,0.33639,0,0.003089821,0.001552905,0.798425,0.06461,12.93,1.225,0.75,11.88
0,0.003580076,1.00632,1.0014,0,0,0.663987,0.334618,0.727271,0,0.338058,0.331556,0.667122,0,0,0,0.501355,0.754119,0.628628,0.332177,0.001449299,0,0,0.805,0.0635062,12.99,1.235,0.72,11.55
0,0.008032794,0.993799,1.00902,0,0.002017992,0.668289,0.335237,0.727773,0,0.334667,0.332773,0.664482,0,0,0.000159092,0.498926,0.742961,0.624798,0.335966,0,2.86E-06,0,0.801484,0.0656879,12.54,1.217,0.73,11.13
0.001617956,0,1.00173,0.99456,0.000386516,0.000982414,0.664096,0.339102,0.72458,0.001076719,0.33438,0.331321,0.665499,0,0,0,0.501812,0.748777,0.624751,0.336505,0,0.004745886,0.001090859,0.79864,0.0679513,13.44,1.22,0.66,10.78
0,0.000854044,0.996566,1.00144,0,0.000421282,0.666872,0.336797,0.723838,0.002890094,0.332309,0.337389,0.670416,0.000452302,0,0,0.500235,0.749191,0.627339,0.333751,0,0.001487619,0,0.802671,0.0684592,12.7,1.23,0.67,10.4
0,0,1.00232,0.996975,0,0,0.669442,0.33144,0.726737,0.000210082,0.334054,0.335819,0.663363,0.001457787,0.004277343,0,0.49228,0.747009,0.624689,0.329161,1.58E-05,0.000381664,0,0.799497,0.07112283,10.17,1.315,0.7,9.38
0,0,1.00294,1.00234,0,0,0.671708,0.329915,0.727863,0,0.666131,0.329214,0.666942,0,0,0.002636292,0.497804,0.749823,0.627942,0.333373,0,0.000651009,0,0.802669,0.0649127,11.64,1.283,0.79,11.8
0.001584322,1.00309,0,0.000963165,0.995837,0.002328796,0.999467,0,0.54514,0.996426,0.996933,0.668056,0.674167,1.00324,0,1.00183,0.502633,0.496591,0.62582,1.00218,0,0,0.995515,0.202617,0.10793,20,0.474,0.648,6.1
0.001792367,1.00002,0,0.001074946,0.994232,0.001189927,1.00859,0,0.547482,0.999538,0.997073,0.665287,0.660977,1.00131,0,1.00072,0.501414,0.497287,0.622757,0.997759,0,0,0.996879,0.196599,0.114158,20.8,0.481,0.632,6.3
0,0.996809,0.002422288,0.000132329,0.998653,0.000118538,1.00103,0.003297004,0.547434,0.998722,1.00236,0.66846,0.666039,1.00157,0.002810666,0.998415,0.503761,0.498241,0.625354,0.998814,0,0.000425707,1.00451,0.204804,0.11171,19.7,0.49,0.648,6.2
0.007592571,1.00107,0.000404948,0,0.998865,0.001174178,1.00076,0.00168823,0.546325,0.998554,0.996431,0.665656,0.672293,0.999957,0.000311316,1.00286,0.505259,0.499695,0.627399,1.0009,0,0,1.00249,0.203134,0.107863,21.3,0.476,0.612,6.2
0,1.00534,0,0,1.00021,0,0.995017,0,0.550704,1.00463,1.00332,0.669788,0.665574,1.00163,0,0.999758,0.497303,0.502943,0.616732,1.00456,0,0,0.996544,0.199754,0.113845,19,0.545,0.61,6.3
0.005294733,0.954722,0.0487525,0.995305,0,0.003287913,1.004,0,0.580497,0,0.671602,0.336558,0.332059,0,0,0,0.497923,0.748822,0.500835,0.661274,0,0.00064567,1.0018,0.431615,0.114536,21.66,0.94,0.6337,12.94
0,0.848738,0.148904,1.00217,0,0,1.00603,0,0.594633,0,0.662914,0.328092,0.337595,0.002085692,0,0.001370737,0.497859,0.749391,0.492292,0.664498,0.004687591,0,1.00548,0.286555,0.112085,21.51,0.98,0.6439,13.55
0.001443569,0.700592,0.297646,1.00797,0.003179907,0.000585799,0.997947,0,0.599352,0.000595199,0.666931,0.335842,0.332091,0,0,0,0.500553,0.752359,0.497759,0.66893,0,0.004769261,1.0006,0.282366,0.115037,20.33,1.03,0.7248,15.21
0.998322,0.00071499,0,1.00002,0.007322321,0,0.994298,0,0.618337,0.000163919,0.333601,0.332429,0.332088,0.002671974,0,0.004193472,0.494604,0.250095,0.623659,0.333151,0,0.00702625,0.006714091,0,0.001069629,18.17,0.82,0.3329,4.74
0.003679078,0,0.996566,1.00271,0,0,0,0.998013,0.879561,0.000739662,0.337016,0.002276,0.996179,0,0,0.000957024,0.000913463,0.75173,0.246739,0.333074,0,0,0,0.714119,0.0503897,5.38,1.29,0.71,4.92
0.001584651,2.51E-05,0.996664,0.999187,0.002141678,0,0.002287919,1.00118,0.877556,0,0.331622,0,1.00314,0,0.000600455,0,0.500117,0.752005,0.254636,0.329503,0.005171366,0,0,0.71817,0.05604686,5.91,1.31,0.77,5.94
1.00259,0.000449429,0,0.753222,0.248085,0,0.99382,0,0.445254,0,1.00387,0.667572,0.664593,4.41E-05,0.005817753,0.002674961,0.998176,0.743105,0.625758,0.335939,0.666173,0.498781,0,0.343514,0.218124,20.65,0.9578,0.7416,14.67
0.994782,0.000488063,0.001704892,1.00054,0.000328689,0.001132258,1.00669,0,0.593391,0.001082778,0.997568,0.669731,0.671676,0.003630545,0,0.002689979,1.00166,0.745649,0.626806,0.335814,0.670611,0.499499,0,0.4022553,0.232713,23.8,0.7454,0.7856,13.93
0.998952,0.002344515,0,0,1.00053,0,0.994995,0,0.508347,1.00085,0.995521,0.666176,0.667625,0.993487,0.001809924,0.004865344,1.00135,1.00004,0.122984,0.168002,0.665114,0.748906,0,0.283754,0.111008,4.52,0.15,0.38,0.26
0.899875,0,0.0967499,1.00055,0,0,1.00099,0.000859186,0.610393,1.00041,1.00192,0.668094,0.672012,0,0.999845,0.995695,1.0049,1.00421,0.1229,0.167021,0.669021,0.672336,0.999527,0.289876,0.111272,18.57,1,0.744,13.81
0.996005,0.000474429,0.002229593,0,0.996603,0,1.00135,0.001805351,0.502776,0.999162,0.994015,0.671194,0.66663,0.000971127,0.001710299,0,0.997915,1.00122,0.126438,0.168528,0.665558,0.66939,1.00273,0.286167,0.110473,18.65,0.62,0.55,6.36
0,0.005181257,0.997236,1.00157,0,0.006871251,0.665698,0.332555,0.713523,0,1.00114,0.998415,0.664786,0.002159795,0,0.000270997,1.0022,0.744877,0.128547,0.0590868,0.498384,0.49788,0.004264549,0.450937,0.0561838,15.39,1.13,0.8009,13.93
1.00016,0,0.006992626,1.00049,0.002404653,0.006340948,0.998147,0,0.574603,0.007529617,0.660512,0.332625,0.339739,0.002717063,0,0,0.505022,0.246493,0.246204,0.166531,0,0.000638362,0,0.197518,0.337388,20.9,0.99,0.65,13.5
0.995463,0.000647978,0,0.502529,0.49822,0,1.00243,0.002333626,0.453321,1.00263,1.00056,0.664158,0.665913,0,0.001061484,0,0.995234,0.249639,0.750083,0.669246,0.418513,0.503057,0.000619452,0.311088,0.505368,24.9,0.75,0.659,12.3
0.997618,0.003957685,0.001397475,0.997945,0.001919377,0,0.999404,0.00493853,0.572741,0,0.334733,0.331386,0.333165,0,0.003221811,0.007401199,0.498659,0.257226,0.756998,0.663626,0,0,0,0.196046,0.326406,20.31,1.036,0.723,15.23
0.998272,0,0,0.996627,0,0.002178717,0.996711,0.001874711,0.586231,0,0.33471,0.335818,1.0006,0.003826565,0,0.001091214,0.499251,0.253921,0.807515,0.337863,0,0,0,0.282481,0.11655,20.2,0.985,0.54,10.5
0,0,0.998127,0.997206,0.002425354,0,0.661603,0.327425,0.72538,0.003375444,0.330313,0.326441,0.335932,1.00442,0.003742168,0.00158952,1.00087,0.746133,0.124711,0.113697,0.663648,0.668398,0.001233079,0.351368,0.106525,14.47,1.17,0.6737,11.4
0,0.004290637,1.00204,0.9942,0.002454321,0.00050882,0.665248,0.340241,0.717261,0,0.334679,0.331552,0.332293,0.999833,0,0,0.996893,0.745816,0.12903,0.115864,0.667861,0.667376,0,0.373114,0.114652,14.4,1.13,0.6818,11.11
0.008628662,0.99731,0.00213096,0,1.00177,0,1.00708,0.004401476,0.531147,1.00265,1.00061,0.998015,0.66888,0.001422827,0.999542,0.002949415,1.0002,0.746203,0.253764,0.0555418,0.831647,0.501707,0.002243392,0.198839,0.105034,19.55,0.5,0.6371,6.25
0.002723855,0.006152651,0.99794,0.993172,0.000190638,0.008372921,0.6645357,0.330463,0.720591,0.001174431,0.331011,0.3378,0.338346,0.999283,0.003269245,0.000768508,0.992563,0.747515,0.129833,0.106336,0.670449,0.758777,0.998534,0.564242,0.114693,15.22,1.2,0.7589,13.86
6.25E-06,0.996567,0,0,0.99826,0.003121237,1.00532,0.003506667,0.531206,0.998895,1.00002,0.668096,0.664297,0,0.000564542,0.001958632,0.498227,0.751634,0.622426,0.335954,0,0,0,0.266197,0.16894,19.95,0.408,0.5822,4.74
0,1.00138,0.000630079,0.003160086,0.99741,0.003901995,1.00345,0.002637566,0.53256,1.00276,1.00255,0.665769,0.666594,0,0.000177772,0,0.499642,0.755873,0.628166,0.335488,0,0.004025063,0.002185376,0.27294,0.169342,18.98,0.386,0.5938,4.36
0,0.998142,0.001774076,0,0.999361,0,1.00416,0,0.529649,0.999991,0.996458,0.671265,0.666224,0,0,0.001373818,0.499209,0.75243,0.632239,0.333364,0,0.000618661,0,0.269359,0.165776,18.57,0.381,0.578,4.09
0.004792238,1.00419,0,0,1.00364,0.001384376,1.00249,0,0.534148,1.0016,0.999373,0.664568,0.665949,0,0.003214871,0.002344395,0.498236,0.744504,0.62722,0.327795,0.003667562,0,0,0.274021,0.171552,17.37,0.386,0.5744,3.85
0.000346359,0.997135,0,0,1.00015,0,1.00235,0,0.531252,1.00406,1.00188,0.664609,0.662051,0.001676101,0,0.000999476,0.506628,0.748502,0.625243,0.334576,0,0.00060253,0,0.268581,0.166448,16.98,0.351,0.5588,3.38
0,0.99564,0.002491705,0.001525988,1.00125,0.004763986,1.00687,0,0.533806,1.00439,0.996954,0.668775,0.671253,0.002586455,0.000858704,0,0.504785,0.752629,0.624624,0.332498,0,0,0.002023617,0.26832,0.164,22.24,0.493,0.6519,7.15
0.005009857,0.995295,0,0,1.00113,0,1.00628,0.005429543,0.529439,1.00034,1.00468,0.672191,0.66619,0.001296608,0.005406938,0.000971466,0.500368,0.7476233,0.618237,0.334911,0.000653271,0,0.003492134,0.272382,0.159864,21.95,0.478,0.646,6.78
0.002586127,1.00044,0,0.001074487,1.00106,0,1.00071,0,0.524866,0.998899,0.998799,0.669229,0.667498,0.004754752,0,0.001489391,0.496704,0.748321,0.624252,0.335989,0.00192938,0,0.003380106,0.274189,0.17023,21.19,0.475,0.637,6.42
0,1.00596,0,0.001110613,0.997366,0,0.998119,0,0.529295,1.00042,0.99599,0.668051,0.669168,0.000221315,0,0.001635599,0.503295,0.751093,0.622673,0.33248,1.92E-05,2.15E-05,0,0.27212,0.167939,21.35,0.481,0.6074,6.25
0.000901591,0.998675,0.004144593,0,1.00394,0,0.999702,0,0.531238,1.00032,1.00487,0.670744,0.668701,0,0,0.001013875,0.507445,0.751018,0.623928,0.336442,0.001720145,0,0.002581939,0.268916,0.162389,19.74,0.484,0.6231,5.96
0.147295,0.797665,0.0474095,1.00129,0.00115036,0,0.998326,0.003034023,0.596129,0,0.33184,0,0.998073,0.999667,0.001279323,0.001401535,0.999317,0.755113,0.125233,0.109838,0.663873,0.497267,0.998429,0.28723,0.335581,24.23,1.01,0.78,19.11
0.160419,0.791648,0.0486073,1.01024,0.000346397,0,0.826548,0.173302,0.559994,0,0.664102,0.999401,0.669414,1.00288,0.003635783,0.003934896,0.999229,0.744051,0.0754645,0.0670081,0.665064,0.66826,0.993173,0.426186,0.112714,24.4,1.208,0.8076,23.62
0.078264,0.920594,0,0.99866,0,0,1.00217,0.00361062,0.58336,0,0.6656112,0.996866,0.333671,0.000110277,0.005551586,0.00566199,1.00204,0.749882,0.376833,0.32814,0.424585,0.494827,0.004621267,0.427704,0.165648,24.72,1.15,0.7839,22.34
0.0196229,0.978748,0.0507289,1.00316,2.94E-05,0.000103495,0.997592,0.000633679,0.593107,0.004233411,0.998684,0.000898278,1.00132,0,0,0.999673,0.997413,0.756748,0.245451,0.279052,0.831465,0.496783,0.996495,0.312403,0.218975,25.67,1.178,0.8647,26.15
0.13615,0.805087,0.0577081,0.995714,0.005040078,0.000572384,1.00266,0,0.587077,1.00529,0.998576,0.005616629,0.667629,1.0037,0.000274589,0.990926,0.998102,0.755121,0.12123,0.110463,0.833808,0.500125,1.00174,0.285094,0.334532,24.52,1.18,0.8427,24.38
0.138162,0.79775,0.0593567,1.00249,0.002558506,0,1.00276,0,0.588481,0.998433,0.998434,0,0.665769,0.997787,0,1.00133,0.997882,0.75276,0.125577,0.114623,0.835342,0.500419,1.00087,0.284919,0.336065,23.86,1.18,0.8415,23.7
0.140551,0.801956,0.0630966,0.994993,0,0,0.997795,8.76E-05,0.585366,1.00148,1.00223,0,0.661839,1.00563,0.00211244,0.996945,0.998553,0.74655,0.124159,0.109502,0.832581,0.500503,1.00449,0.285771,0.331225,24.58,1.18,0.8352,24.23
0.143717,0.795425,0.0597439,0.995738,0.00436449,0,1.00096,0.005153196,0.588689,0.997551,1.0008,0,0.662599,1.00184,0.000963456,0.998093,0.997793,0.749515,0.1272222,0.110803,0.833219,0.495135,0.99842,0.28709,0.331017,24.71,1.17,0.8389,24.25
0.001041284,0.799495,0.192523,1.00067,0,0,0.598699,0.395722,0.677075,0.99862,0.998452,0.001603151,0.66767,0.999081,0.006595495,1.00533,0.499116,0.750015,0.623362,0.332675,0,0,1.00167,0.284683,0.108902,24.74,1.18,0.7375,21.53
0,0.804474,0.200297,0.999257,0.000707245,0,0.603671,0.397431,0.670048,1.00301,1.00558,0,0.665789,0.998135,0,0.991576,0.499187,0.74839,0.621475,0.329625,0,0,1.00138,0.288386,0.109337,24.74,1.19,0.7633,22.47
0,0.802666,0.199902,0.999166,0,0,0.595646,0.405445,0.677536,1.00472,1.00214,0,0.663896,1.00395,0,1.0036,0.50345,0.749166,0.628611,0.333081,0.002624136,0.00051409,0.99178,0.285815,0.108266,24.4,1.17,0.7267,20.75
0.007869646,0.797617,0.200418,0.996711,0.000340929,0,0.597295,0.397925,0.672972,1.0003,0.999851,0,0.664034,0.996571,0,1.00547,0.502121,0.751056,0.626844,0.33391,0,0,0.997428,0.286633,0.110606,24.78,1.19,0.7705,22.72
0,1.00051,0,0.998392,0,0.001716949,0.998146,0.003099931,0.578171,0,0.662919,0.994706,0.330705,0,0.004376679,0,1.00353,0.752647,0.123108,0.05419702,0.832088,0.587099,0.995598,0.284342,0.277162,25.31,1.15,0.8307,23.76
0,0.795926,0.202164,0.503639,0.497989,0.006698907,1.00297,0,0.46325,0.998201,0.999677,0.662979,0.999911,0.00313954,0.999715,1.00109,0.999208,0.749882,0.186371,0.107863,0.583626,0.75391,1.00219,0.243354,0.324752,30.65,0.84,0.81,21.02
0.30264,0.69793,0.500139,0.503805,0.000480802,0,1.00454,0,0.482501,1.00239,0.999219,0.666146,0.665584,0.00088607,0.001823833,0,0.996608,0.7487586,0.125196,0.052054,0.663745,0.663751,1.00035,0.281588,0.109977,30.3,0.79,0.755,18
0.29813,0.699999,0.495513,0.501038,0.49635,4.59E-05,0.994959,0.000132732,0.481963,0,1.00271,0.661083,0.667718,0.998015,0,1.00294,0.999803,0.751871,0.126343,0.110612,0.6647,0.669954,0.995543,0.285942,0.117066,31,0.841,0.78,20.41
0,0.749821,0.246697,0.599404,0.400568,0,1.00027,0,0.47379,1.0008,1.0022,0.668913,0.669112,1.00092,0.000690753,0,0.495419,0.994599,0.496711,0.330704,0,0,0.9989201,0.287218,0.0753101,30.56,0.88,0.8,21.6