File: 4.GBDT/.ipynb_checkpoints/data-checkpoint.csv
MA_ratio,FA_ratio,Cs_ratio,Pb_ratio,Sn_ratio,other_ratio,I_ratio,Br_ratio,po_electrode,ETL/ETM,HTL/HTM,ne_eletrode,effective area (cm2),additive_O,additive_I,additive_H,passivation,step,dissolvent,coated1_s(rpm),coated1_t (s),coated2_s(rpm),coated2_t (s),anti-solvent,anneal_T (℃),anneal_t (min),,Jsc (mA/cm2),Voc (V),FF,PCE (%)
0.933271,0,0,0.526316,0,0,0.824516,0,1,1,1,0.666667,0.05,0,0,0,1,0,0.75,0.5,0.222222,0,0,0.115,0.285714,0.0222222,,0.650769,0.644918,0.920094,0.479075
0.933271,0,0,0.526316,0,0,0.824516,0,1,1,1,1,0.0428571,0,0,0,0,0,0.25,1,0.333333,0,0,0,0.285714,0.166667,,0.277538,0.345044,0.716804,0.11957
0,0,0.933271,0.526316,0,0,0.549677,0.333333,0.5,0.333333,0.333333,1,0.05,0,0,0,0,0,0.75,0.35,0.277778,0,0,0,1,0.0555556,,0.361846,0.608532,0.681551,0.263053
0,0,0.933271,0.526316,0,0,0.549677,0.333333,0.5,0.333333,0.333333,1,0.05,0,1,0,1,0,0.75,0.35,0.277778,0,0,0,1,0.0555556,,0.430154,0.734003,0.869565,0.478278
0.139991,0.818882,0,0.526316,0,0,0.700838,0.15,0.5,0.333333,0.333333,0.333333,0.0504286,0,0,0,0,1,0.5,0.625,0.5,0.833333,0.5,0,0.285714,0.666667,,0.710154,0.671267,0.728555,0.616182
0.933271,0,0,0.526316,0,0,0.824516,0,1,0.666667,0.666667,0.333333,1,1,0,1,0,1,0.75,0.125,0.0555556,0.666667,0.2,0.04,0.385714,0.0333333,,0.650769,0.660602,0.766157,0.579115
0,0,0.933271,0,1,0,0.824516,0,1,1,1,0.666667,0.0428571,0,0,0,1,0,0.75,0.375,0.333333,0,0,0,0.2,0.0888889,,0.443692,0.395232,0.705053,0.219609
0.0466636,0.915222,0,1,0,0,0.618387,0.0833333,0.5,0.666667,0.666667,0.333333,0.0857143,1,1,0,1,1,1,0.0375,0.111111,0.666667,0.5,0.2,0.428571,0.111111,,0.759692,0.683814,0.878966,0.802312
0,0.963391,0,0,1,0,0.824516,0,1,1,1,0.666667,0.0635714,0,0,0,1,1,0.5,0.125,0.133333,0.833333,0.8,0.08,0.285714,0.133333,,0.688308,0.457967,0.846063,0.46951
0.839944,0,0.0933271,0.526316,0,0,0.824516,0,1,0.666667,0.666667,0.666667,0.0285714,0,1,1,1,1,0.75,0.125,0.111111,0.666667,0.5,0.1,0.428571,0.111111,,0.701538,0.652447,0.773208,0.621762
0,0,0.933271,0,1,0,0,1,0.5,0.333333,0.333333,0.333333,0.114286,0,1,1,0,0,0.5,0.25,0.333333,0,0,0,0.285714,0.111111,,0.28,0.263488,0.6698,0.0864886
0.134858,0.679672,0.139991,0.526316,0,0,0.684348,0.17,0.5,0.333333,0.333333,0.333333,0.114286,0,0,0,0,1,0.75,0.125,0.111111,1,0.333333,0.1,0.285714,0.666667,,0.596923,0.68256,0.810811,0.581905
0.933271,0,0,0.394737,0.25,0,0.494709,0.4,1,1,1,0.666667,0.0714286,0,0,0,1,1,0.75,0.125,0.166667,0.666667,0.75,0.7,0.285714,0.111111,,0.530769,0.570891,0.893067,0.475488
0,0,1,0,0,1,0.883468,0,0.5,0.333333,0.333333,0.666667,0.09,0,0,0,0,0,0.75,0.1875,0.222222,0,0,0,0.314286,0.333333,,0.0661538,0.53325,0.705053,0.0434436
0,0,0.933271,0.526316,0,0,0.824516,0,0.5,0.333333,0.333333,0.333333,0.0642857,0,1,1,0,1,0.75,0.1,0.111111,0.583333,0.583333,0,0.285714,0.166667,,0.492923,0.558344,0.664982,0.321642
0,0,0.933271,0.526316,0,0,0.824516,0,0.5,0.333333,0.333333,1,0.0446429,0,0,0,0,0,0.5,0.25,0.333333,0,0,0,0.314286,0.111111,,0.414154,0.44542,0.540541,0.177361
0,0,0.933271,0.526316,0,0,0,1,0.5,0.333333,0.333333,0.333333,0.114286,0,0,0,0,0,0.25,0.3125,0.666667,0,0,0,0.214286,0.333333,,0.188,0.759097,0.869565,0.218015
0,0,0.933271,0.526316,0,0,0.824516,0,0.5,0.333333,0.333333,1,0.714286,0,0,0,0,0,0.25,0.25,0.333333,0,0,0,0.2,0.333333,,0.214154,0.790464,0.6698,0.199283
0,0,0.933271,0.505263,0,0.0559832,0,1,0.5,0.333333,0.333333,1,0.0642857,0,0,0,1,1,0.25,0.25,0.333333,0.333333,0.5,0,0.714286,0.0555556,,0.148923,0.951066,0.895417,0.222798
0,0,0.933271,0.505263,0,0.0559832,0,1,0.5,0.333333,0.333333,1,0.0642857,0,0,0,1,1,0.25,0.25,0.333333,0.333333,0.5,0,0.714286,0.0555556,,0.214462,0.974906,0.925969,0.340375
0,0,0.933271,0.510526,0,0.0419874,0,1,0.5,0.333333,0.333333,1,0.0642857,0,0,0,1,1,0.25,0.25,0.333333,0.333333,0.5,0,0.714286,0.0555556,,0.216615,0.909661,0.907168,0.313671
0,0,0.933271,0.515789,0,0.0279916,0.549677,0.333333,0.5,0.333333,0.333333,0.333333,0.113571,0,0,0,1,1,0.75,0.125,0.111111,0.666667,0.5,0,0.285714,0.0555556,,0.470769,0.654329,0.821387,0.438422
0,0,0.933271,0.526316,0,0,0,1,0.5,0.333333,0.333333,1,0.0642857,0,0,0,0,0,0.75,0.25,0.333333,0,0,0,0.714286,0.111111,,0.225846,0.784191,0.740306,0.231965
0,0,0.933271,0.510526,0,0.0419874,0.549677,0.333333,0.5,0.333333,0.333333,0.333333,0.114286,0,0,0,1,1,0.75,0.125,0.111111,0.5,0.5,0,0.8,0.111111,,0.450462,0.757842,0.875441,0.525309
0.886608,0,0.0466636,0.526316,0,0,0.824516,0,0.5,0.333333,0.333333,0.666667,0.0892857,0,0,0,0,0,0.75,0.5,0.333333,0,0,0.5,0.428571,0.0555556,,0.655385,0.627353,0.809636,0.585891
0,0.963391,0,0.526316,0,0,0.824516,0,0.5,0.333333,0.333333,0.666667,0.0892857,0,0,0,0,0,0.75,0.5,0.333333,0,0,0.5,0.428571,0.0555556,,0.704615,0.65872,0.822562,0.669589
0,0.963391,0,0.526316,0,0,0.824516,0,0.5,0.333333,0.333333,0.666667,0.0892857,0,0,0,0,0,0.75,0.5,0.333333,0,0,0.5,0.428571,0.0555556,,0.689231,0.6399,0.820212,0.633719
0,0.963391,0,0.526316,0,0,0.824516,0,0.5,0.333333,0.333333,0.666667,0.0892857,0,0,0,0,0,0.75,0.5,0.333333,0,0,0.5,0.428571,0.0555556,,0.701538,0.652447,0.842538,0.681546
0,0.963391,0,0.526316,0,0,0.824516,0,0.5,0.333333,0.333333,0.666667,0.0892857,0,0,0,0,0,0.75,0.5,0.333333,0,0,0.5,0.428571,0.0555556,,0.692308,0.664994,0.858989,0.697489
0,0.963391,0,0.526316,0,0,0.824516,0,0.5,0.333333,0.333333,0.333333,0.114286,0,0,0,0,1,0.75,0.125,0.111111,1,0.25,0.1,0.428571,0.111111,,0.658462,0.507528,0.695652,0.414508
0.079328,0.598748,0.0466636,0.526316,0,0,0.68531,0.168833,0.5,0.333333,0.333333,0.333333,0.114286,0,1,1,0,1,0.75,0.125,0.111111,1,0.333333,0.01,0.285714,0.666667,,0.698462,0.695734,0.869565,0.741331
0.079328,0.526975,0.139991,0.526316,0,0,0.675691,0.1695,0.5,0.333333,0.333333,0.333333,0.114286,0,1,1,0,1,0.75,0.125,0.111111,1,0.333333,0.01,0.285714,0.666667,,0.615385,0.711418,0.752056,0.577919
0.0466636,0.722543,0.139991,0.526316,0,0,0.659612,0.2,0.5,0.333333,0.333333,0.333333,0.114286,0,1,1,0,1,0.75,0.125,0.111111,1,0.333333,0.01,0.285714,0.666667,,0.649231,0.664994,0.881316,0.669589
0.0583294,0.722543,0.233318,0.526316,0,0,0.666483,0.170833,0.5,0.333333,0.333333,0.333333,0.114286,0,1,1,0,1,0.75,0.125,0.111111,1,0.333333,0.01,0.285714,0.666667,,0.636923,0.655583,0.775558,0.569948
0.0195987,0.818882,0.0933271,0.526316,0,0,0.673354,0.2,0.5,0.333333,0.333333,0.333333,0.114286,0,1,1,0,1,0.75,0.125,0.111111,1,0.333333,0.01,0.285714,0.666667,,0.646154,0.671895,0.846063,0.645676
0.0643957,0.818882,0.158656,0.526316,0,0,0.662361,0.176667,0.5,0.333333,0.333333,0.333333,0.114286,0,1,1,0,1,0.75,0.125,0.111111,1,0.333333,0.01,0.285714,0.666667,,0.627692,0.665621,0.857814,0.629733
0.125992,0.736994,0.0933271,0.526316,0,0,0.700838,0.15,1,0.666667,0.666667,0.666667,0.0728571,0,1,1,0,1,0.5,0.125,0.111111,0.833333,0.5,0.2,0.285714,0.666667,,0.686769,0.687578,0.716216,0.603826
0.0219319,0.0910405,0.0284648,0.319211,0.6065,0,1,0,1,1,1,0.666667,0.075,0,1,1,1,1,0.5,0.625,0.111111,0,0,0,0.285714,0.0777778,,1,0.489335,0.843713,0.725389
0.167989,0.693642,0.0933271,0.263158,0.5,0,0.824516,0,1,1,1,0.666667,0.075,0,1,1,1,1,0.5,0.625,0.111111,0,0,0,0.285714,0.0777778,,0.815385,0.451694,0.721504,0.494221
0,0,0.933271,0.526316,0,0,0.549677,0.333333,0.5,0.333333,0.333333,0.333333,0.107143,0,0,0,0,0,0.25,0.1875,0.444444,0,0,0,0.8,0.111111,,0.295385,0.76537,0.869565,0.342766
0,0,0.933271,0.526316,0,0,0.549677,0.333333,0.5,0.333333,0.333333,0.333333,0.107143,0,0,0,0,0,0.25,0.1875,0.444444,0,0,0,0.8,0.111111,,0.332615,0.759097,0.857814,0.378637
0,0,0.933271,0.526316,0,0,0.549677,0.333333,0.5,0.333333,0.333333,0.333333,0.107143,0,0,0,0,0,0.25,0.1875,0.444444,0,0,0,0.8,0.111111,,0.286769,0.740276,0.834313,0.314866
0,0,0.933271,0.526316,0,0,0.549677,0.333333,0.5,0.333333,0.333333,0.333333,0.107143,0,0,0,0,0,0.25,0.1875,0.444444,0,0,0,0.8,0.111111,,0.333846,0.752823,0.822562,0.362694
0.933271,0,0,0.526316,0,0,0.824516,0,0.5,0.333333,0.333333,0.333333,0.0507143,0,0,0,0,1,0.25,0.125,0.111111,0.5,0.25,0,0.285714,0.111111,,0.450462,0.538269,0.808461,0.34436
0.933271,0,0,0.526316,0,0,0.824516,0,0.5,0.333333,0.333333,0.333333,0.0507143,0,0,0,0,1,0.25,0.125,0.111111,0.5,0.25,0,0.285714,0.111111,,0.494769,0.494354,0.692127,0.29733
0.933271,0,0,0.526316,0,0,0.824516,0,0.5,0.333333,0.333333,0.333333,0.0507143,1,0,0,1,1,0.25,0.125,0.111111,0.5,0.25,0,0.285714,0.111111,,0.684923,0.612296,0.804935,0.593065
0.933271,0,0,0.526316,0,0,0.824516,0,0.5,0.333333,0.333333,0.333333,0.0507143,1,0,0,1,1,0.25,0.125,0.111111,0.5,0.25,0,0.285714,0.111111,,0.680308,0.628607,0.884841,0.665205
0.119459,1,0.0475968,0.674737,0,0,0.898447,0.170833,0.5,0.333333,0.333333,0.333333,0.714286,0,0,0,0,1,0.75,0.25,0.111111,1,0.5,0.2,0.285714,0.666667,,0.799385,0.626098,0.384606,0.250299
0,0,0.933271,0.526316,0,0,0.549677,0.333333,0.5,0.333333,0.333333,0.333333,0.0642857,0,1,0,1,1,0.75,0.125,0.111111,0.5,0.5,0,0.8,0.111111,,0.5,0.828105,0.940423,0.683938
0.933271,0,0,0.526316,0,0,0.338051,0.49,0.5,0.333333,0.333333,0.333333,0.142857,0,0,0,0,0,0.25,0.75,0.0555556,0,0,0,0.2,0.333333,,0.195385,0.523212,0.615746,0.111598
0.559963,0.385356,0,0.526316,0,0,0.824516,0,0.5,0.333333,0.333333,0.333333,0.203571,0,0,0,0,1,0.25,0.8125,0.111111,0.003333333,0.5,0,0.214286,0.111111,,0.558462,0.644291,0.840188,0.534077
0,0,0.933271,0,1,0,0.274839,0.666667,0.5,0.333333,0.333333,0.333333,0.142857,0,1,0,1,0,0.5,0.25,0.444444,0,0,0,0.285714,0.111111,,0.356,0.195107,0.505288,0.0621762
0,0,0.933271,0.526316,0,0,0.549677,0.333333,0.5,0.333333,0.333333,0.333333,0.05,0,0,0,0,0,0.25,0.1875,0.444444,0,0,0,0.8,0.0222222,,0.323077,0.76537,0.869565,0.378637
0,0,0.933271,0.526316,0,0,0.549677,0.333333,0.5,0.333333,0.333333,0.333333,0.05,0,0,0,0,0,0.25,0.1875,0.444444,0,0,0,0.8,0.0222222,,0.313846,0.727729,0.857814,0.342766
0,0,0.933271,0,1,0,0,1,0.5,0.333333,0.333333,0.333333,0.05,0,0,0,0,0,0.25,0.1875,0.444444,0,0,0,0.8,0.0222222,,0.310769,0.771644,0.857814,0.362694
0,0,0.933271,0,1,0,0,1,0.5,0.333333,0.333333,0.333333,0.05,0,0,0,0,0,0.25,0.1875,0.444444,0,0,0,0.8,0.0222222,,0.369231,0.771644,0.857814,0.426465
0,0,0.933271,0.526316,0,0,0.549677,0.333333,0.5,0.333333,0.333333,0.333333,0.05,0,0,0,0,0,0.25,0.1875,0.444444,0,0,0,0.8,0.0222222,,0.344615,0.734003,0.775558,0.346752
0,0,0.933271,0,1,0,0,1,0.5,0.333333,0.333333,0.333333,0.05,0,0,0,0,0,0.25,0.1875,0.444444,0,0,0,0.8,0.0222222,,0.356923,0.752823,0.79906,0.382623
0,0,0.933271,0.473684,0,0.139958,0.494709,0.4,0.5,0.666667,0.666667,0.333333,0.0714286,0,0,0,1,0,0.75,0.375,0.277778,0,0,0.5,0.457143,0.111111,,0.350462,0.696361,0.696827,0.30291
0,0,0.933271,0.526316,0,0,0.549677,0.333333,0.5,0.666667,0.666667,0.666667,0.0857143,0,0,0,0,0,0.75,0.625,0.333333,0,0,0,0.8,0.0666667,,0.367077,0.754705,0.810811,0.39458
0,0,0.933271,0.526316,0,0,0.549677,0.333333,0.5,0.666667,0.666667,0.666667,0.0857143,0,0,0,0,0,0.75,0.625,0.333333,0,0,0,0.8,0.0666667,,0.371077,0.728984,0.846063,0.402152
0,0,0.933271,0.526316,0,0,0.549677,0.333333,0.5,0.666667,0.666667,0.666667,0.0857143,0,0,0,1,0,0.75,0.625,0.333333,0,0,0,0.8,0.0666667,,0.370462,0.804893,0.92832,0.48625
0,0,0.933271,0.526316,0,0,0.549677,0.333333,0.5,0.666667,0.666667,0.666667,0.0857143,0,0,0,1,0,0.75,0.625,0.333333,0,0,0,0.8,0.0666667,,0.367077,0.793601,0.822562,0.420885
0,0,0.933271,0.526316,0,0,0.549677,0.333333,0.5,0.333333,0.333333,0.666667,0.0857143,0,0,0,0,0,0.75,0.625,0.333333,0,0,0,0.8,0.0666667,,0.404923,0.782936,0.869565,0.484257
0,0,0.933271,0.526316,0,0,0.549677,0.333333,0.5,0.333333,0.333333,0.666667,0.0857143,0,0,0,0,0,0.75,0.625,0.333333,0,0,0,0.8,0.0666667,,0.402462,0.769134,0.869565,0.473097
0,0,0.933271,0.526316,0,0,0.549677,0.333333,0.5,0.333333,0.333333,0.666667,0.0857143,0,0,0,0,0,0.75,0.625,0.333333,0,0,0,0.8,0.0666667,,0.400923,0.769762,0.846063,0.458749
0,0,0.933271,0.526316,0,0,0.549677,0.333333,0.5,0.333333,0.333333,0.666667,0.0857143,0,0,0,0,0,0.75,0.625,0.333333,0,0,0,0.8,0.0666667,,0.385231,0.766625,0.857814,0.442009
0,0,0.933271,0.526316,0,0,0.549677,0.333333,0.5,0.333333,0.333333,0.666667,0.0857143,0,0,0,0,0,0.75,0.625,0.333333,0,0,0,0.8,0.0666667,,0.384615,0.743413,0.846063,0.426465
0,0,0.933271,0.526316,0,0,0.549677,0.333333,0.5,0.333333,0.333333,0.666667,0.0857143,0,0,0,0,0,0.75,0.625,0.333333,0,0,0,0.8,0.0666667,,0.363077,0.779172,0.810811,0.403348
0,0,0.933271,0.526316,0,0,0.549677,0.333333,0.5,0.333333,0.333333,0.666667,0.0857143,0,0,0,0,0,0.75,0.625,0.333333,0,0,0,0.8,0.0666667,,0.363077,0.79611,0.740306,0.373456
0,0,0.933271,0,1,0,0.824516,0,0.5,0.333333,0.333333,0.333333,0.0964286,0,1,1,1,0,0.75,0.3125,0.666667,0,0,0,0.285714,0.222222,,0.740308,0.183061,0.399765,0.0952571
0,0.963391,0,0,1,0,0.824516,0,1,1,1,0.666667,0.0160714,1,0,1,1,0,0.5,0.625,1,0,0,0.8,0.2,0.111111,,0.624615,0.293601,0.769683,0.24711
0,0.963391,0,0,1,0,0.824516,0,1,1,1,0.666667,0.0160714,1,0,1,1,0,0.5,0.625,1,0,0,0.8,0.2,0.111111,,0.649231,0.304266,0.740306,0.255082
0,0.963391,0,0,1,0,0.824516,0,1,1,1,0.666667,0.0160714,1,0,1,1,0,0.5,0.625,1,0,0,0.8,0.2,0.111111,,0.6,0.311794,0.79671,0.263053
0,0.963391,0,0,1,0,0.824516,0,1,1,1,0.666667,0.0160714,1,0,1,1,0,0.5,0.625,1,0,0,0.8,0.2,0.111111,,0.535385,0.336261,0.840188,0.267039
0,0.963391,0,0,1,0,0.824516,0,1,1,1,0.666667,0.0160714,1,0,1,1,0,0.5,0.625,1,0,0,0.8,0.2,0.111111,,0.584615,0.341907,0.781434,0.27501
0.886608,0,0.0466636,0.526316,0,0,0.824516,0,0.5,0.666667,0.666667,0.333333,0.0571429,0,0,0,0,0,0.75,0.5,0.666667,0,0,0.75,0.428571,0.111111,,0.667385,0.583438,0.687662,0.469908
0.746617,0,0.186654,0.526316,0,0,0.824516,0,0.5,0.666667,0.666667,0.333333,0.0571429,0,0,0,0,0,0.75,0.5,0.666667,0,0,0.75,0.285714,0.111111,,0.668615,0.646173,0.850411,0.644878
0.65329,0,0.279981,0.526316,0,0,0.824516,0,0.5,0.666667,0.666667,0.333333,0.0571429,0,0,0,0,0,0.75,0.5,0.666667,0,0,0.75,0.285714,0.111111,,0.629538,0.6399,0.777908,0.550418
0.933271,0,0,0.526316,0,0,0.824516,0,0.5,0.333333,0.333333,0.333333,0.0785714,0,0,0,1,0,0.25,0.625,0.333333,0,0,0.4,0.285714,0.111111,,0.540615,0.437892,0.52738,0.224392
0.933271,0,0,0.394737,0.25,0,0.824516,0,0.5,1,1,0.666667,0.0642857,0,0,0,1,1,0.75,0.625,0.333333,0.666667,0.5,0,0.342857,0.222222,,0.635385,0.600878,0.871445,0.584695
0.933271,0,0,0.526316,0,0,0.824516,0,0.5,0.666667,0.666667,0.666667,0.0642857,0,0,0,0,1,0.75,0.625,0.333333,0.666667,0.5,0,0.4,0.222222,,0.732308,0.467629,0.923149,0.555201
0.933271,0,0,0,1,0,0.824516,0,1,1,1,0.666667,0.0714286,1,0,0,0,1,1,0.125,0.166667,0.666667,0.75,0.7,0.285714,0.111111,,0.139077,0.0941029,0.446533,0.0103627
0.839944,0,0.0933271,0.526316,0,0,0.824516,0,1,1,1,0.666667,0.0714286,0,1,1,1,1,1,0.125,0.166667,0.666667,0.666667,0.5,0.285714,0.111111,,0.571385,0.627353,0.874266,0.550418
0.933271,0,0,0.263158,0.5,0,0.824516,0,1,1,1,0.666667,0.0714286,0,0,0,0,1,1,0.125,0.166667,0.666667,0.666667,0.3,0.285714,0.111111,,0.573846,0.388959,0.646298,0.253487
0,0.963391,0,0.131579,0.75,0,0.824516,0,1,1,1,0.666667,0.0714286,0,0,0,0,1,1,0.125,0.166667,0.666667,0.666667,0.2,0.285714,0.111111,,0.628615,0.288582,0.659224,0.210044
0,0.770713,0.186654,0,1,0,0.824516,0,1,1,1,0.666667,0.0714286,0,1,1,1,1,1,0.125,0.166667,0.666667,0.666667,0.1,0.285714,0.111111,,0.493846,0.150565,0.420682,0.055002
0,0,0.933271,0.526316,0,0,0.549677,0.333333,0.5,1,1,0.666667,0.0535714,1,1,0,1,1,0.75,0.125,0.0555556,0.5,0.5,0,0.457143,0.0555556,,0.487077,0.770389,0.974853,0.642886
0.933271,0,0,0.526316,0,0,0.824516,0,0.5,1,1,0.666667,0.0642857,1,0,0,0,1,0.75,0.625,0.333333,0.833333,0.5,0,0.4,0.222222,,0.614462,0.595985,0.916569,0.591072
0.933271,0,0,0.263158,0.5,0,0.824516,0,0.5,0.333333,0.333333,0.333333,0.214286,0,0,0,0,0,0.25,0.75,0.666667,0,0,0,0.2,0.333333,,0.608,0.604141,0.820212,0.529295
0.933271,0,0,0.526316,0,0,0.824516,0,0.5,0.333333,0.333333,1,0.114286,0,0,0,0,0,0.25,0.8125,0.333333,0,0,0,0.285714,0.111111,,0.64,0.690715,0.787309,0.542049
0,0,0.933271,0.526316,0,0,0.549677,0.333333,0.5,0.333333,0.333333,0.333333,0.0642857,0,0,0,0,1,0.75,0.125,0.111111,0.666667,0.666667,0.278,0.371429,0.111111,,0.416923,0.677541,0.763807,0.37784
0,0,0.933271,0.526316,0,0,0.549677,0.333333,0.5,0.333333,0.333333,0.333333,0.0642857,1,0,0,1,1,0.75,0.125,0.111111,0.666667,0.666667,0.278,0.4,0.111111,,0.436,0.702635,0.779553,0.418892
0,0,0.933271,0.526316,0,0,0.549677,0.333333,0.5,0.333333,0.333333,0.333333,0.0642857,1,0,0,1,1,0.75,0.125,0.111111,0.666667,0.666667,0.278,0.342857,0.111111,,0.479077,0.740276,0.876146,0.545636
0,0,0.933271,0.526316,0,0,0.274839,0.666667,1,0.666667,0.666667,0.333333,0.114286,0,0,0,0,1,0.5,0.25,0.333333,0,0,0,0.285714,0.333333,,0.326462,0.721455,0.822562,0.340375
0,0,0.933271,0.526316,0,0,0.549677,0.333333,0.5,0.333333,0.333333,0.333333,0.0642857,1,0,0,1,1,0.75,0.125,0.111111,0.666667,0.75,0.15,0.571429,0.111111,,0.471692,0.76537,0.924794,0.589079
0,0,0.933271,0.526316,0,0,0.824516,0,0.5,0.333333,0.333333,0.333333,0.0642857,1,1,1,1,0,0.75,0.5,0.333333,0,0,0,0.857143,0.111111,,0.452923,0.759724,0.925969,0.559984
0,0,0.933271,0.526316,0,0,0.824516,0,0.5,0.333333,0.333333,0.333333,0.0642857,1,1,1,1,0,0.75,0.5,0.333333,0,0,0,0.857143,0.111111,,0.448308,0.762233,0.927145,0.556397
0.934892,0,0.001543286,0.529438,0.001279011,0,0.824499,0.004868237,0.998098,1.00489,0.997532,0.6693,0.0470875,0.002835714,0,0.005997513,1.00353,0.001018171,0.752163,0.500158,0.224114,0,0,0.113638,0.283555,0.0220959,,0.650769,0.644918,0.920094,0.479075
0.934599,0,0.003567268,0.530205,7.16E-05,0.000708785,0.824347,0,0.998847,0.999672,1.00101,1.00109,0.0406641,0.000394334,6.91E-06,0,0,0,0.257085,1.00025,0.337554,0.002801448,0.006883506,0.000677837,0.288561,0.162308,,0.277538,0.345044,0.716804,0.11957
0,0.00259055,0.935777,0.532161,0,0,0.553122,0.335293,0.500766,0.332791,0.327255,1.00533,0.0520513,0,0,0,0,0.003392662,0.750012,0.357769,0.278907,0,0,0,0.997434,0.0580895,,0.361846,0.608532,0.681551,0.263053
0,0,0.938436,0.526475,0,0,0.551637,0.33889,0.501087,0.333199,0.333623,0.998795,0.0531511,0,0.998268,0.001753532,0.99842,0.007350539,0.747451,0.351487,0.277773,0,0.001338826,0.00229578,0.996625,0.0532071,,0.430154,0.734003,0.869565,0.478278
0.141264,0.82055,0,0.530248,0.002019571,0,0.702163,0.14501,0.499365,0.336392,0.333299,0.329864,0.0470854,0.002483109,0,0.002851792,0.003289915,1.00488,0.500902,0.628895,0.497392,0.833509,0.505099,0,0.283267,0.668377,,0.710154,0.671267,0.728555,0.616182
0.937649,0.004945674,0.000168324,0.5326483,0.004062286,0.003742953,0.828913,0.001438729,0.995884,0.660939,0.666921,0.333441,1.0016,1.00071,0,1.00181,0.001885039,0.997987,0.752367,0.121338,0.054204,0.6621401,0.2048,0.0406129,0.381177,0.0329999,,0.650769,0.660602,0.766157,0.579115
0.002041016,0.001058439,0.932578,0,0.999008,0.002419612,0.829849,0.000358314,1.00128,0.996435,1.00323,0.667917,0.0493859,0.000787709,0,0.003684784,1.00093,0.000188223,0.751989,0.377451,0.334499,0.001048612,0.000870105,0,0.200286,0.0855008,,0.443692,0.395232,0.705053,0.219609
0.0471146,0.916277,0.000231642,1.00154,0,0,0.617943,0.0818527,0.496524,0.666083,0.665965,0.334093,0.08277655,0.999881,1.00462,0,1.00566,1.00084,0.998788,0.0286919,0.112243,0.663867,0.503003,0.19975,0.426407,0.110516,,0.759692,0.683814,0.878966,0.802312
0,0.9616098,0,0,0.99434,0.001889635,0.822118,0.000902009,1.00392,0.998367,1.00071,0.667329,0.0652298,0,0,0,1.00476,1.00222,0.5025,0.126961,0.131616,0.829891,0.797729,0.0785938,0.290164,0.134946,,0.688308,0.457967,0.846063,0.46951
0.842708,0,0.0936927,0.528884,0,0.001934851,0.826719,0,1.00403,0.671931,0.669084,0.664583,0.0261275,0,0.993448,0.997743,0.997822,0.999596,0.750299,0.128998,0.115349,0.663498,0.501851,0.102606,0.431483,0.112018,,0.701538,0.652447,0.773208,0.621762
0.000639908,0.006215403,0.934224,0.000488673,0.999537,0,0.004040344,1.00053,0.502483,0.336829,0.335165,0.331531,0.115138,0,1.00051,1.00482,0.005807262,0,0.498437,0.250857,0.33098,0,0.006761878,0.000646708,0.287999,0.113804,,0.28,0.263488,0.6698,0.0864886
0.126138,0.67899,0.142014,0.527265,0.000286703,0,0.682958,0.168792,0.499565,0.329571,0.330093,0.33622,0.113109,0,0,0.001674961,0,1.0018,0.7475,0.124042,0.112108,1.003,0.332376,0.101478,0.285231,0.666135,,0.596923,0.68256,0.810811,0.581905
0.933543,0.001168495,0.005986857,0.393524,0.253432,0.000597048,0.493551,0.396841,1.0007,0.996072,1.00113,0.671331,0.0732395,0,0,0,0.995802,1.00033,0.74678,0.125301,0.166352,0.660656,0.750513,0.700128,0.277383,0.110602,,0.530769,0.570891,0.893067,0.475488
0,0,1.00025,0.005474108,0,0.998314,0.883495,0,0.496794,0.331526,0.328517,0.665743,0.0859067,0,0,0.002764981,0.004234764,0,0.752879,0.189506,0.224019,0,0,0.004536987,0.316081,0.334516,,0.0661538,0.53325,0.705053,0.0434436
0.005067364,0,0.936143,0.524309,0,0,0.82323,0,0.499981,0.332047,0.337516,0.33485,0.0639671,0,0.998388,1.00235,0,0.999005,0.753791,0.101962,0.113047,0.584168,0.580671,0.000992902,0.282876,0.167575,,0.492923,0.558344,0.664982,0.321642
0,0,0.930127,0.526204,0,0.00197052,0.828323,0.005714142,0.501367,0.333939,0.332213,1.00216,0.04403561,0,0,0,0,0.000774899,0.498483,0.252181,0.335177,0,0.000345983,0,0.3181,0.113543,,0.414154,0.44542,0.540541,0.177361
0,0,0.934003,0.519887,0,0.00079199,0,0.997445,0.500455,0.330381,0.334483,0.333461,0.116507,0,0,0.000890524,0.003955815,0.005112108,0.249036,0.310573,0.66706,0.003692125,0.000239068,0.001048151,0.217671,0.335002,,0.188,0.759097,0.869565,0.218015
0.002405728,0,0.932463,0.527807,0.000737761,0,0.817347,0.000900047,0.497549,0.333271,0.332287,0.998462,0.711207,0.001972483,0,0.001303166,0,0,0.249275,0.252122,0.334408,0,0.003129762,0.003612961,0.196216,0.335247,,0.214154,0.790464,0.6698,0.199283
0,0,0.929036,0.505725,0,0.0549052,0.005563675,1.00329,0.49987,0.337862,0.332882,0.995346,0.0581464,0,0.000609633,0.001774742,0.995485,1.00137,0.25273,0.24936,0.335343,0.331552,0.499452,0,0.715048,0.060109,,0.148923,0.951066,0.895417,0.222798
0.001649855,0,0.933892,0.503237,0,0.055324,0.002235611,0.997336,0.503406,0.339052,0.334931,1.00385,0.0653712,0.00521521,0.001269876,0.000955701,1.00168,0.994595,0.246318,0.25242,0.332915,0.327583,0.497205,0.004640731,0.714317,0.0492715,,0.214462,0.974906,0.925969,0.340375
0,0,0.93501,0.511533,0.003896927,0.0371389,0,1.00253,0.496741,0.33285,0.334129,0.998711,0.0614509,0.002388152,0,0,1.00287,1.00574,0.246525,0.252742,0.333023,0.325064,0.495713,0.000417687,0.710202,0.0547765,,0.216615,0.909661,0.907168,0.313671
0,0.002609022,0.932446,0.512689,0,0.0270374,0.546761,0.333577,0.497773,0.337019,0.335344,0.330679,0.11104,0.005022893,0,0.00334899,0.997557,1.00036,0.746743,0.125084,0.113364,0.66801,0.499083,0,0.283962,0.0538474,,0.470769,0.654329,0.821387,0.438422
0.000265646,0.004995744,0.933716,0.527018,0,1.74E-05,0.002631332,1.00285,0.497037,0.331194,0.328677,0.998965,0.0684233,0.001112388,0,0,0,0,0.751442,0.252157,0.338101,0.001987332,0,0,0.719477,0.113164,,0.225846,0.784191,0.740306,0.231965
0.001076742,0,0.932914,0.505901,0.003076802,0.0443584,0.54893,0.331948,0.502785,0.338724,0.332654,0.331048,0.115636,0.000268127,0,0.002987192,1.00248,0.998965,0.756211,0.122366,0.111251,0.494549,0.500619,0.00243474,0.806204,0.11084,,0.450462,0.757842,0.875441,0.525309
0.888994,0.000341011,0.0431318,0.527218,0,0,0.820772,0.0012528,0.500931,0.337075,0.335964,0.671975,0.0908227,0,0,0.005778947,0.001318361,0,0.747246,0.501183,0.337745,0,0.003573047,0.497496,0.426371,0.0523399,,0.655385,0.627353,0.809636,0.585891
0,0.964166,0,0.526561,0,0,0.827485,0.003102499,0.503467,0.332181,0.330252,0.668907,0.0869219,0.004186935,0.00384054,0,0.001543456,0.001651732,0.749462,0.497505,0.33307,0.001330664,0.003303386,0.496998,0.430705,0.0605531,,0.704615,0.65872,0.822562,0.669589
0.004007986,0.964359,0,0.527116,0.006739811,0,0.824719,0,0.5033,0.330139,0.330621,0.672844,0.0858693,0,0,0.004386162,0,0,0.748746,0.501498,0.332809,0.003708784,0,0.502336,0.431213,0.056113,,0.689231,0.6399,0.820212,0.633719
0,0.963199,0,0.529703,0,0.000838514,0.827339,0,0.496877,0.334964,0.333456,0.667697,0.0890596,0.008899419,0.001104611,0,0,0,0.750551,0.497719,0.329564,0,0,0.499848,0.427425,0.0553472,,0.701538,0.652447,0.842538,0.681546
0.001275091,0.967598,0,0.521588,0,0,0.831684,0,0.503262,0.327638,0.335816,0.663015,0.0927294,0,0.000894109,0.000137176,0,0,0.751845,0.500834,0.328648,0,0,0.502179,0.426772,0.0571812,,0.692308,0.664994,0.858989,0.697489
0,0.962687,0.002118973,0.528314,0,0.001715464,0.825387,0.001424951,0.499717,0.330624,0.33389,0.331143,0.112304,0,0.000285908,0.001962647,0,1.00542,0.749208,0.123249,0.109894,1.00116,0.251402,0.101642,0.427769,0.111121,,0.658462,0.507528,0.695652,0.414508
0.0717808,0.601441,0.0506979,0.52733,0.00458965,0,0.680675,0.175536,0.501636,0.329154,0.336399,0.335267,0.117414,0,0.999971,0.999571,0,0.995055,0.746408,0.121529,0.110916,0.99848,0.335964,0.008070405,0.285932,0.665849,,0.698462,0.695734,0.869565,0.741331
0.082222,0.523479,0.139304,0.524119,0.004931414,0.00292189,0.680469,0.173982,0.498444,0.335798,0.336672,0.338158,0.11813,0,0.999933,0.99668,0,0.997276,0.752082,0.125112,0.114735,0.998255,0.331993,0.009689528,0.286736,0.66848,,0.615385,0.711418,0.752056,0.577919
0.0462032,0.727195,0.144715,0.528334,0,0.009373062,0.662672,0.196488,0.505195,0.329425,0.335095,0.332258,0.112815,0,0.99875,0.996918,0,0.999301,0.746915,0.124263,0.113516,1.00376,0.336553,0.0102226,0.286452,0.665093,,0.649231,0.664994,0.881316,0.669589
0.0622219,0.721872,0.237218,0.521587,0,0.00365404,0.667695,0.171851,0.496553,0.331493,0.330234,0.334794,0.112897,9.69E-05,0.999809,1.00232,0,1.00361,0.747681,0.131761,0.104541,1.00487,0.333914,0.0125951,0.286131,0.668223,,0.636923,0.655583,0.775558,0.569948
0.0224308,0.817308,0.0951127,0.538276,0.00636415,0.002403814,0.668555,0.19742,0.501846,0.334553,0.335236,0.333513,0.115339,0,1.00418,0.998428,0.003802611,0.99898,0.749542,0.129449,0.111291,0.995281,0.331057,0.01171,0.282916,0.664598,,0.646154,0.671895,0.846063,0.645676
0.0644757,0.821083,0.160393,0.525528,0.001640815,0,0.665141,0.179133,0.498001,0.333979,0.329487,0.327449,0.115087,0.006775601,0.998327,1.00495,0.002269116,0.995609,0.745395,0.126698,0.106158,1.00231,0.335089,0.013459,0.281707,0.66797,,0.627692,0.665621,0.857814,0.629733
0.125375,0.73803,0.0920466,0.529866,0.000643623,0,0.701175,0.1550695,1.00218,0.673004,0.66936,0.664297,0.0736003,0,0.998802,1.00046,0,0.998865,0.505218,0.128113,0.112729,0.836097,0.500434,0.196749,0.28762,0.671378,,0.686769,0.687578,0.716216,0.603826
0.0227834,0.089605,0.0276174,0.319696,0.608641,0,1.00165,0.003708618,0.994869,1.0003,1.00219,0.666099,0.0792468,0.003220703,1.00584,0.999176,0.999491,0.996996,0.49432,0.624821,0.112413,0,0,0.002071369,0.286625,0.0752423,,1,0.489335,0.843713,0.725389
0.168086,0.699523,0.0899134,0.264188,0.499323,0,0.822821,0.001857606,1.00423,1.00217,1.00307,0.670212,0.0766531,0,1.00157,1.00042,1.00487,1.00283,0.498069,0.622034,0.110523,0,0,6.78E-05,0.284759,0.07515699,,0.815385,0.451694,0.721504,0.494221
0,0.002673464,0.938861,0.527375,0,0,0.552629,0.3337,0.499859,0.329879,0.330297,0.335944,0.107983,0.004882102,0.005303654,0,0,0,0.24757,0.192002,0.447611,0,0,0.000463218,0.797676,0.111458,,0.295385,0.76537,0.869565,0.342766
0.001730856,0.000606055,0.93374,0.525339,0,0.000170052,0.548487,0.332718,0.49677,0.335648,0.332057,0.333216,0.112124,0,0,0.003631429,0,0,0.250937,0.187253,0.444658,0,0,0.003801153,0.796621,0.113647,,0.332615,0.759097,0.857814,0.378637
0.003270869,0,0.938785,0.528413,0,0.000110762,0.551526,0.333513,0.498147,0.330494,0.332905,0.327614,0.1059,0,0,0.002548226,0,0.001779558,0.246692,0.186535,0.444573,0.000233721,0,0,0.798491,0.110766,,0.286769,0.740276,0.834313,0.314866
0,0,0.93094,0.52603,0.007511684,0,0.549958,0.338338,0.491398,0.3346,0.332698,0.330077,0.109744,0.001319039,0.000565933,0,0.001259571,0.003445474,0.250635,0.19216,0.446374,0,0.002721867,0,0.796876,0.115613,,0.333846,0.752823,0.822562,0.362694
0.934669,0.003497811,0,0.528772,0.001807394,0,0.824088,0,0.494069,0.339499,0.333508,0.334115,0.051108,0,0.000585073,0,0,0.993873,0.241617,0.125964,0.107736,0.501834,0.250669,0.000159357,0.285881,0.111296,,0.450462,0.538269,0.808461,0.34436
0.93076,0.003053499,0,0.527166,0,0,0.825561,0,0.498784,0.334885,0.334389,0.336883,0.0455875,0,0,0,0.004581783,0.999915,0.252881,0.125387,0.111768,0.501958,0.245922,0.005639135,0.288787,0.111631,,0.494769,0.494354,0.692127,0.29733
0.930943,0.001551001,0.004455841,0.527181,0.002184476,0.003326491,0.827105,0,0.493027,0.331238,0.3304,0.33541,0.0531874,0.99601,0,0.000796123,0.995951,1.00261,0.247851,0.119799,0.11485,0.497977,0.244358,0,0.284624,0.113371,,0.684923,0.612296,0.804935,0.593065
0.935861,0.00046726,0,0.525817,0,0,0.825602,0,0.503308,0.329436,0.334778,0.332504,0.0531232,1.00093,0.003676555,0.003775801,0.99849,1.00119,0.252123,0.132064,0.112753,0.495983,0.247429,0,0.285291,0.110976,,0.680308,0.628607,0.884841,0.665205
0.12036,1.00153,0.0472585,0.673054,0,0.000246412,0.900098,0.171974,0.498329,0.332479,0.332068,0.330175,0.720579,0,0.004595304,0,0,1.00239,0.749681,0.246842,0.112468,1.00418,0.504245,0.194909,0.285553,0.667262,,0.799385,0.626098,0.384606,0.250299
0,0,0.936019,0.52749,0,0.003140633,0.548367,0.333896,0.497636,0.332002,0.334054,0.336684,0.0643034,0.00608862,0.99427,0,1.00539,1.00062,0.747299,0.130842,0.111684,0.492838,0.495669,0.00270083,0.802834,0.111435,,0.5,0.828105,0.940423,0.683938
0.92976,0,0,0.523417,0,0,0.33888,0.490825,0.496805,0.336344,0.332038,0.333355,0.138885,0.000302473,0.003096286,0,0,0,0.245915,0.750034,0.05342992,0.004515323,0.000938475,0.000256949,0.196024,0.330648,,0.195385,0.523212,0.615746,0.111598
0.561859,0.389694,0.002859667,0.52889,0,0.001265014,0.82766,0,0.497389,0.322853,0.335212,0.329223,0.206825,0,0.001726619,0,0,0.99504,0.251797,0.809664,0.109288,0,0.503545,0.002897968,0.213568,0.110152,,0.558462,0.644291,0.840188,0.534077
0.001708948,0,0.934025,0.002318101,1.00072,0.002751006,0.276647,0.669799,0.502137,0.335411,0.330715,0.333727,0.141571,0.000510382,0.998815,0.00066872,0.992976,0.000477857,0.500135,0.242661,0.450777,0,0,0.001547839,0.285391,0.110704,,0.356,0.195107,0.505288,0.0621762
0.000637731,0.002901399,0.936197,0.527531,0,0.004607751,0.546444,0.335296,0.504077,0.333086,0.327138,0.328437,0.0493301,0,0,0.001381136,0.000527634,0,0.245492,0.192467,0.448276,0.001737822,0.000546982,0.000567313,0.800154,0.0207248,,0.323077,0.76537,0.869565,0.378637
0,0,0.933517,0.521929,0,0.002879264,0.558733,0.331512,0.498735,0.331557,0.336741,0.332644,0.0530748,0,0.004077808,0.000453675,0.003585167,0,0.249373,0.186621,0.443983,0.001608965,0,0.004324324,0.803749,0.023773,,0.313846,0.727729,0.857814,0.342766
0.000270447,0.000341896,0.925937,0,0.995212,0,0,0.994396,0.498967,0.336484,0.329317,0.334394,0.0497308,0,0.00032119,0.001924377,0.001568535,0.003486707,0.254276,0.190323,0.449177,0.003138945,0.001091184,0.000380093,0.801294,0.0246023,,0.310769,0.771644,0.857814,0.362694
0,0,0.934565,0.003872046,0.999424,0,0,1.00278,0.501154,0.338671,0.334702,0.328996,0.045098,0,0,0.004468928,0,0,0.249298,0.185289,0.439364,0.001887998,0,0,0.800863,0.03171211,,0.369231,0.771644,0.857814,0.426465
0,0,0.939574,0.528289,0,0.006974666,0.548888,0.330613,0.497864,0.327552,0.334652,0.333186,0.0515182,0,0,0.002980912,0,0.008343885,0.253079,0.194584,0.445848,0,0.00327993,0.003102163,0.798717,0.0186918,,0.344615,0.734003,0.775558,0.346752
0,0.003195446,0.935372,0.001371377,0.998292,0.002225004,0,0.995767,0.504322,0.32779,0.330465,0.331858,0.0516712,0.007045419,0,0,0.001276403,0.004024301,0.251973,0.189286,0.441581,0,0.001191138,0.000398384,0.800735,0.0217259,,0.356923,0.752823,0.79906,0.382623
0,0,0.935184,0.472478,0.004915351,0.136927,0.497448,0.395991,0.502817,0.665229,0.666972,0.331879,0.0762424,0,0,0,0.999616,0.00027989,0.750612,0.375827,0.278217,0.001063564,0.005163344,0.504934,0.460792,0.112396,,0.350462,0.696361,0.696827,0.30291
0.001036418,0.004231069,0.933519,0.529244,6.70E-05,0,0.549498,0.336701,0.502374,0.669674,0.674914,0.661355,0.0858149,0.000984584,0.004547916,0,0,0.000854257,0.747203,0.6252562,0.329305,0,0,0,0.804156,0.0627385,,0.367077,0.754705,0.810811,0.39458
0.001344142,0,0.931613,0.528263,0,0.004037482,0.545652,0.328804,0.500816,0.666716,0.668351,0.6656,0.0896721,0,0,0,0,0.000653535,0.752155,0.628853,0.326683,0.003385372,0.004390027,0.001863623,0.795322,0.0662993,,0.371077,0.728984,0.846063,0.402152
0.002719853,0.002913371,0.93838,0.528116,0.00133253,0,0.543705,0.333452,0.498703,0.663016,0.669826,0.6669,0.0922458,0.00321766,0.002527223,0,1.0002,0,0.749465,0.622696,0.330156,0,0,0.004187908,0.802558,0.0698032,,0.370462,0.804893,0.92832,0.48625
0.003674075,0.001825348,0.932928,0.524813,0,0,0.55017,0.336797,0.502824,0.664641,0.665201,0.666289,0.0825968,0,0,0.004870716,0.997156,0,0.75088,0.625945,0.333318,0.002793523,7.50E-05,0.000231689,0.800905,0.0687357,,0.367077,0.793601,0.822562,0.420885
0.000139123,0,0.934605,0.524134,0.005607796,0,0.549757,0.336858,0.502531,0.326328,0.331414,0.670909,0.0892769,0.000664238,0,0,0.000660185,0,0.747834,0.62538,0.335674,0,0.00208043,0.004279576,0.798107,0.0666356,,0.404923,0.782936,0.869565,0.484257
0.00036995,0,0.934278,0.522271,0.001923782,0.001526419,0.550699,0.334489,0.500351,0.328787,0.32816,0.664794,0.0840876,0,0.002046368,0,0.000697838,0.003465114,0.747107,0.621364,0.332765,0.002084009,0.004249505,0,0.802154,0.0667938,,0.402462,0.769134,0.869565,0.473097
0.00671623,0,0.937266,0.530425,0.001058611,0,0.546239,0.328959,0.499246,0.334242,0.336582,0.672297,0.0896107,0,0.002281722,0,0,0.000865601,0.747316,0.620979,0.335677,0.001596366,0.004155755,0,0.800888,0.0652892,,0.400923,0.769762,0.846063,0.458749
0.000306059,0.003139882,0.929293,0.529318,0.001121679,0,0.549716,0.332434,0.499351,0.334749,0.331757,0.666391,0.0899503,0.002188411,0.003569303,0.000177707,6.80E-06,0,0.743499,0.626224,0.328189,0,0,0.003386407,0.802945,0.0655754,,0.385231,0.766625,0.857814,0.442009
0,0.001818002,0.933924,0.524543,0,0.000649712,0.54898,0.330513,0.501427,0.335033,0.335364,0.668408,0.0855633,0,0,0,0,0,0.750823,0.632027,0.336639,0.005401426,0.001568318,0,0.802539,0.0623599,,0.384615,0.743413,0.846063,0.426465
0,0.0021625,0.935131,0.5244682,0.00561402,0.001588526,0.551039,0.335537,0.501783,0.334078,0.32725,0.666515,0.0852459,0,0,0,0,0,0.75147,0.624334,0.331035,0.00359244,0.004228321,0,0.801581,0.0683284,,0.363077,0.779172,0.810811,0.403348
0.000928116,0.003827593,0.931678,0.526558,0,0.004737363,0.547088,0.328405,0.504257,0.328405,0.328519,0.662962,0.087787,0,0.003170531,0.000823038,0,0.000953882,0.750279,0.626951,0.33628,0,0,0,0.799589,0.0767568,,0.363077,0.79611,0.740306,0.373456
0.002467819,0,0.931118,0.001552978,1.00032,0,0.821778,0.00126435,0.503249,0.339138,0.334584,0.335633,0.09576895,0,1.00314,0.997299,1.00081,0,0.752814,0.314731,0.665874,0.006940436,1.24E-05,0.001559946,0.282869,0.223356,,0.740308,0.183061,0.399765,0.0952571
0,0.965767,0,0.001913671,1.00024,0,0.82509,0.001434108,0.999092,1.00124,1.00019,0.665476,0.01140918,1.00035,0.002377489,0.997294,1.00168,0,0.500941,0.625109,0.998234,0.003923535,0.00171034,0.803106,0.199024,0.111127,,0.624615,0.293601,0.769683,0.24711
0,0.967608,0,0,0.998045,0.001609404,0.826082,0.004360822,0.998575,1.00375,1.00302,0.666922,0.0193384,0.995074,0.000352141,0.999456,0.995872,0,0.502038,0.622907,0.999501,0,0,0.800124,0.201702,0.111159,,0.649231,0.304266,0.740306,0.255082
0.003617115,0.966841,0,0.006873692,1.00241,0.000556748,0.823482,2.06E-05,0.997609,1.00143,1.00596,0.658882,0.01491465,0.998357,0,1.00042,1.00098,0.002445836,0.498154,0.620411,1.00222,0.000500832,0,0.801056,0.199353,0.114817,,0.6,0.311794,0.79671,0.263053
0.001111845,0.960685,0,0,0.998074,0,0.827085,0.000903763,0.99619,0.998082,1.00093,0.672474,0.0184613,1.00578,0.001403817,0.999376,1.00201,0,0.500845,0.62436,0.999069,0.002801627,0,0.798707,0.19894,0.115005,,0.535385,0.336261,0.840188,0.267039
0.001450762,0.959808,0,0,1.00293,0,0.827581,0,0.994394,0.999133,0.999743,0.666751,0.0118357,0.997259,0,0.999997,0.99815,0,0.501552,0.623585,1.00661,0.004865702,0,0.800022,0.202962,0.110266,,0.584615,0.341907,0.781434,0.27501
0.891305,0,0.0480306,0.522563,0.000822904,0.003226583,0.826247,0,0.50103,0.668803,0.666751,0.334524,0.0576443,0.003432224,0.002086762,0,0.001484369,0.001423523,0.748285,0.500257,0.667727,0.002467378,0,0.752244,0.432882,0.108711,,0.667385,0.583438,0.687662,0.469908
0.748492,0.002972977,0.18277,0.527525,0,0.008023211,0.823096,0,0.502835,0.664283,0.665405,0.336128,0.05539404,0.001013719,0,0.003725383,0,0,0.749189,0.500645,0.669687,0,0.002962952,0.751904,0.285606,0.107668,,0.668615,0.646173,0.850411,0.644878
0.653733,0.000627059,0.28302,0.522069,0,0.000139367,0.823955,0.004154946,0.501112,0.668734,0.66419,0.332918,0.0549745,0,0.001962986,0,0.001689143,0,0.751478,0.505393,0.669133,0.002928138,0,0.750523,0.285807,0.110592,,0.629538,0.6399,0.777908,0.550418
0.935812,0,0.002157208,0.522348,0.003349193,0,0.827076,0,0.494882,0.332143,0.336163,0.338625,0.0696865,0.002025237,0,0.004650307,0.996419,0,0.251683,0.625005,0.3326,0,0.003822857,0.400585,0.278627,0.11144,,0.540615,0.437892,0.52738,0.224392
0.935469,0.001822624,0,0.397827,0.254724,0,0.822622,0,0.502362,0.999651,0.994307,0.668164,0.0629954,0.000476355,0.002576655,0,1.00327,0.995838,0.744062,0.627771,0.329822,0.672616,0.495884,0,0.344366,0.224102,,0.635385,0.600878,0.871445,0.584695
0.928772,0.002629497,0.000652376,0.523455,0,0.00138561,0.819085,0,0.501605,0.665365,0.664635,0.666485,0.0702915,0.004665499,0,0.000485734,3.22E-05,1.00517,0.749188,0.626639,0.326534,0.664023,0.497058,0.00157867,0.401606,0.219357,,0.732308,0.467629,0.923149,0.555201
0.937381,0,0.000241532,0,1.00402,0.001849371,0.823533,0.00438483,0.994667,0.997174,0.997067,0.671206,0.0673125,1.00476,0.000392711,0.005067051,0.00224,0.998816,0.994231,0.120588,0.170259,0.673381,0.752174,0.702585,0.287245,0.109832,,0.139077,0.0941029,0.446533,0.0103627
0.838449,0.002394986,0.0937243,0.532467,0.007077217,0,0.831078,0,0.996589,1.00375,0.998628,0.66992,0.0683058,1.72E-05,1.00123,0.998939,0.997724,0.995814,0.996777,0.129016,0.167541,0.667916,0.666453,0.495384,0.287679,0.106579,,0.571385,0.627353,0.874266,0.550418
0.93053,0,0,0.258777,0.504413,0.008793791,0.824152,0,1.00007,1.00308,1.00165,0.664328,0.0722189,0,0,0,0,1.00656,0.995952,0.121571,0.165872,0.666068,0.666333,0.299232,0.290859,0.113287,,0.573846,0.388959,0.646298,0.253487
0.000703109,0.96092,0.002720404,0.130402,0.750322,0,0.827239,0.006469353,0.99978,0.997482,1.01041,0.666503,0.0738475,0.000892037,0,0.000157493,0,0.997686,1.00362,0.127618,0.165062,0.667072,0.665746,0.199907,0.280572,0.1133,,0.628615,0.288582,0.659224,0.210044
0,0.771286,0.186755,0.00223268,1.00054,0,0.829584,0,0.997764,0.995798,1.00104,0.661155,0.0754726,0,1.00565,0.997893,0.995624,1.00049,0.999491,0.126567,0.164213,0.662634,0.660735,0.0987954,0.281978,0.112009,,0.493846,0.150565,0.420682,0.055002
0,0,0.927641,0.521759,0.001010793,0.000556187,0.551649,0.336591,0.492837,0.996672,1.00213,0.666337,0.0556461,0.998475,0.996831,0,0.996134,0.997078,0.74388,0.121373,0.05155979,0.501197,0.49922,0.003105589,0.459961,0.0569313,,0.487077,0.770389,0.974853,0.642886
0.93676,0,0.000735148,0.525243,0,0,0.82749,3.17E-05,0.491042,1.00314,1.00344,0.666107,0.0623427,0.99766,0,0,0.001011894,0.997173,0.753984,0.626724,0.333563,0.832453,0.496254,0,0.398415,0.223669,,0.614462,0.595985,0.916569,0.591072
0.934359,0,0,0.26302,0.503249,0,0.82556,0,0.500197,0.333636,0.332929,0.332671,0.21737,0.002044441,2.86E-05,0,0.003083662,0.001345113,0.255083,0.746758,0.667523,0,0.003411187,0.001232635,0.197306,0.329689,,0.608,0.604141,0.820212,0.529295
0.933313,0,0.004925404,0.52366,0.003735009,0.003225309,0.82279,0.000825154,0.493297,0.334006,0.332409,0.998965,0.10975,0.004558163,0.001775336,0,0.003371012,0,0.251908,0.812297,0.332503,0,0,0.000275495,0.282659,0.113517,,0.64,0.690715,0.787309,0.542049
0,0,0.938546,0.527443,0,0.002510277,0.554543,0.325281,0.495079,0.329029,0.333815,0.338986,0.0610339,0.000842116,0,0.005557562,0.000804686,1.00054,0.750611,0.121221,0.11022,0.674631,0.665964,0.280714,0.370994,0.117192,,0.416923,0.677541,0.763807,0.37784
0.001884982,0,0.933581,0.529815,0,0,0.549826,0.332037,0.495791,0.330166,0.336221,0.332144,0.0637314,1.00291,0.005511445,0,1.00042,0.9995,0.74813,0.128456,0.111007,0.670708,0.660398,0.277694,0.402639,0.110414,,0.436,0.702635,0.779553,0.418892
0,0.003183913,0.935449,0.522387,0,0.006048278,0.551573,0.333627,0.50462,0.332246,0.336007,0.331724,0.0629987,0.998205,0.001438711,0,0.995196,0.997796,0.748933,0.124978,0.112885,0.669178,0.672997,0.280168,0.347428,0.108431,,0.479077,0.740276,0.876146,0.545636
0.002202712,0,0.933198,0.523385,0,0.001375708,0.272817,0.666334,1.00377,0.667365,0.665962,0.331243,0.114002,0,0,0.001521746,0.001602087,1.00036,0.500181,0.247526,0.335078,0,0,0,0.284881,0.336267,,0.326462,0.721455,0.822562,0.340375
0,0.008921735,0.935339,0.528069,0.001306457,0.005139836,0.546042,0.332974,0.499006,0.332339,0.333724,0.334423,0.064435,0.998457,0,0.000972815,0.999782,1.00048,0.750695,0.127633,0.113626,0.66508,0.747424,0.147183,0.566523,0.109532,,0.471692,0.76537,0.924794,0.589079
0,0.001793355,0.939472,0.529349,0.001130111,0.002274457,0.825018,0,0.492344,0.333834,0.336168,0.334445,0.0619641,1.00572,1.00312,0.997939,1.00188,0,0.747666,0.504724,0.336469,0,0,0,0.859943,0.112433,,0.452923,0.759724,0.925969,0.559984
0,0.006591241,0.927159,0.52881,0.004565927,0,0.819127,0,0.497558,0.331635,0.337841,0.339325,0.0651096,1.00074,1.00032,0.999327,0.996534,0,0.752243,0.502467,0.328169,0.0050648,0.00213552,0,0.859196,0.113767,,0.448308,0.762233,0.927145,0.556397
0.22913,0.72082,0.003096936,0.002084484,0.847158,0.20926,0.825921,0,1.0032,1.00214,0.992733,0.333218,0.0787332,0,0.999418,0,0,0.003167243,0.248612,0.624283,0.553335,0.001636346,0.001636711,0.274891,0.194868,0.112474,,0.364308,0.0941029,0.540541,0.0318852