File: 3.XGboost/.ipynb_checkpoints/data-checkpoint.csv
MA,FA,Cs,Pb,Sn,Other,I,Br,Gap,Po,ETL,HTL,Ne,Area,Add_O,Add_I,Add_H,Passivation,Step,Solvent,Coated_v,Coated_t,Coated_1v,Coated_1t,Coated_2v,Coated_2t,antisolvent,Anneal_T,Anneal_t,Jsc,Voc,FF,PCE
1,0,0,1,0,0,1,0,0.61597,1,1,1,0.666667,0.05,0,0,0,1,0.5,0.75,0.5,0.222222,0,0,0,0,0.115,0.285714,0.0222222,0.650769,0.644918,0.920094,0.479075
0,1,0,1,0,0,1,0,0.570342,0,0.333333,0.333333,0.666667,0.228571,1,0,1,1,0.5,1,0.375,0.222222,0,0,0,0,0.5,0.357143,0.222222,0.797231,0.730866,0.976498,1
0,0,1,1,0,0,0.666667,0.333333,0.722433,0,0.333333,0.333333,1,0.05,0,1,0,1,0.5,0.75,0.35,0.277778,0,0,0,0,0,0.428571,0.0555556,0.410462,0.65872,0.728555,0.346752
1,0,0,0,1,0,0.333333,0.666667,0.665399,0,0.333333,0.333333,0.333333,0.0714286,0,0,0,0,0.5,0.25,0.5,0.5,0,0,0,0,0,0.357143,0.333333,0.378462,0.514429,0.6698,0.228378
0.15,0.85,0,1,0,0,0.85,0.15,0.551331,0,0.333333,0.333333,0.333333,0.0504286,0,0,0,0,1,0.5,0,0,0.833333,0.75,0.833333,0.6,0,0.285714,0.666667,0.710154,0.671267,0.728555,0.616182
0,1,0,0,1,0,1,0,0.543726,1,1,0.666667,1,0.0285714,1,1,1,1,0.5,0.75,1,0.666667,0,0,0,0,0.12,0.228571,0.111111,0.766462,0.526976,0.831492,0.590275
0.952,0.048,0,1,0,0,0.968,0.032,0.61597,1,0.666667,0.333333,0.333333,0.0857143,1,0,1,0,1,0.75,0,0,0.166667,0.0833333,0.666667,0.24,0.04,0.385714,0.0333333,0.740615,0.709536,0.902468,0.834197
0.904,0.096,0,1,0,0,0.936,0.064,0.619772,1,0.666667,0.333333,0.333333,0.0857143,1,0,1,0,1,0.75,0,0,0.166667,0.0833333,0.666667,0.24,0.04,0.385714,0.0333333,0.717538,0.664994,0.837838,0.704265
0.15,0.85,0,1,0,0,0.85,0.15,0.608745,0,0.333333,0.333333,0.333333,0.114286,1,0,0,1,0.5,0.75,0.75,0.333333,0,0,0,0,0.1,0.285714,0.666667,0.704308,0.704517,0.888367,0.774412
0,1,0,1,0,0,1,0,0.587452,0,0.666667,0.333333,0.333333,0.0857143,1,1,0,1,1,1,0,0,0.05,0.166667,0.666667,0.6,0.2,0.428571,0.111111,0.733231,0.65872,0.840188,0.713033
0,1,0,1,0,0,1,0,0.585551,1,0.666667,0.333333,0.333333,0.0642857,1,0,1,0,0.5,0.25,0.5,0.333333,0,0,0,0,0,0.428571,0.111111,0.766154,0.708908,0.881316,0.844161
0.17,0.83,0,1,0,0,0.83,0.17,0.608365,1,0.666667,0.333333,0.333333,0.0857143,0,0,0,0,0.5,0.75,0.75,0.333333,0,0,0,0,0.07,0.285714,0.555556,0.714769,0.740276,0.861927,0.818653
0,1,0,0,1,0,1,0,0.536122,0,0.333333,0.333333,0.333333,0.114286,1,0,0,1,1,0.75,0,0,0.166667,0.166667,0.833333,1,1,0.171429,0.666667,0.729231,0.175659,0.646298,0.191311
1,0,0,1,0,0,1,0,0.570342,1,1,0.333333,0.666667,0.0607143,0,0,0,0,0.5,0.75,0.5,0.0666667,0,0,0,0,0,0.285714,0.111111,0.699692,0.734003,0.858989,0.775608
1,0,0,0.9,0.05,0.05,0.966667,0.0333333,0.60076,0,0.333333,0.333333,0.666667,0.0642857,1,0,0,1,1,1,0,0,0.166667,0.333333,0.666667,0.8,0,0.285714,0.111111,0.737538,0.677541,0.951821,0.840175
1,0,0,0.75,0.25,0,0.6,0.4,0.657795,1,1,0.666667,0.666667,0.0714286,0,0,0,1,1,1,0,0,0.166667,0.25,0.666667,0.9,0.7,0.285714,0.111111,0.530769,0.570891,0.893067,0.475488
0.25,0.75,0,0,0.95,0.5,1,0,0.532319,1,1,0.666667,0.333333,0.075,0,1,0,0,0.5,0.25,0.625,0.555556,0,0,0,0,0.434146,0.2,0.111111,0.6,0.263488,0.646298,0.178557
1,0,0,0,1,0,0.333333,0.666667,0.665399,0,0.333333,0.333333,0.333333,0.0714286,0,0,0,0,0.5,0.25,0.5,0.5,0,0,0,0,0,0.357143,0.333333,0.378462,0.514429,0.6698,0.228378
0,0,1,0.96,0.04,0,1,0,0.593156,0,0.333333,1,0.333333,0.0642857,0,1,1,0,1,0.75,0,0,0.133333,0.166667,0.583333,0.7,0,0.285714,0.166667,0.577231,0.608532,0.852996,0.526505
0,0,1,0.96,0.04,0,1,0,0.676806,0,0.333333,0,1,0.0446429,0,0,0,0,0.5,0.5,0.25,0.333333,0,0,0,0,0,0.314286,0.111111,0.450769,0.457967,0.587544,0.211638
0.16,0.79,0.05,0.832,0.168,0,0.826667,0.173333,0.558935,1,1,0.666667,0.666667,0.0285714,0,0,0,0,0.5,0.75,0.625,0.444444,0,0,0,0,0,0.285714,0.333333,0.762769,0.44542,0.848179,0.504185
0.16,0.79,0.05,0.664,0.336,0,0.826667,0.173333,0.524715,1,1,0.666667,0.666667,0.0285714,0,0,0,0,0.5,0.75,0.625,0.444444,0,0,0,0,0,0.285714,0.333333,0.813846,0.495609,0.886604,0.628139
0,0,1,1,0,0,0,1,0.874525,0,0.333333,0,1,0.0857143,0,0,0,0,0.5,0.25,0.125,0.333333,0,0,0,0,0,0.714286,0.0555556,0.236923,0.715182,0.611046,0.18334
0,0,1,0.8,0,0.2,0,1,0.844106,0,0.333333,0,1,0.0642857,0,0,0,1,1,0.25,0,0,0.333333,0.5,0.333333,0.6,0,0.714286,0.0555556,0.228923,0.946048,0.875441,0.3332
0,0,1,1,0,0,0,1,0.882129,0,0.333333,0,1,0.0642857,0,0,0,0,1,0.25,0,0,0.333333,0.5,0.333333,0.6,0,0.714286,0.0555556,0.212,0.859473,0.902468,0.28896
0,0,1,1,0,0,0.666667,0.333333,0.722433,0,0.333333,1,0.333333,0.113571,0,0,0,0,1,0.75,0,0,0.166667,0.166667,0.666667,0.6,0,0.285714,0.0555556,0.412308,0.603513,0.702703,0.306895
0,0,1,1,0,0,0.333333,0.666667,0.790875,0,1,1,0.333333,0.0642857,0,0,0,0,0.5,0.5,0.3125,0.333333,0,0,0,0,0,0.457143,0.222222,0.324923,0.53325,0.728555,0.220008
0,0,1,1,0,0,0.666667,0.333333,0.718631,0,0.333333,0.333333,0.333333,0.114286,0,0,0,0,1,0.5,0,0,0.166667,0.166667,0.5,0.6,0,0.8,0.111111,0.386769,0.702635,0.851939,0.406935
0,0.85,0.15,1,0,0,1,0,0.581749,0,0.333333,0.333333,0.666667,0.0892857,0,0,0,0,0.5,0.75,0.5,0.333333,0,0,0,0,0.5,0.428571,0.0555556,0.633846,0.614806,0.783784,0.538063
0,1,0,1,0,0,1,0,0.574144,0,0.333333,0.333333,0.666667,0.0892857,0,0,0,0,0.5,0.75,0.5,0.333333,0,0,0,0,0.5,0.428571,0.0555556,0.686154,0.627353,0.814336,0.61379
0,1,0,1,0,0,1,0,0.574144,0,0.333333,0.333333,0.666667,0.0892857,0,0,0,0,0.5,0.75,0.5,0.333333,0,0,0,0,0.5,0.428571,0.0555556,0.698462,0.6399,0.834313,0.657633
0,1,0,1,0,0,1,0,0.574144,0,0.333333,0.333333,0.666667,0.0892857,0,0,0,0,0.5,0.75,0.5,0.333333,0,0,0,0,0.5,0.428571,0.0555556,0.710769,0.65872,0.810811,0.665604
0,1,0,1,0,0,1,0,0.574144,0,0.333333,0.333333,0.666667,0.0892857,0,0,0,0,0.5,0.75,0.5,0.333333,0,0,0,0,0.5,0.428571,0.0555556,0.68,0.627353,0.802585,0.6018334
0,0,1,0.975,0,0.025,1,0,0.636122,0,0.333333,0.333333,0.333333,0.0642857,0,0,0,0,0.5,0.75,0.5,0.333333,0,0,0,0,0,0.514286,0.1,0.626154,0.707026,0.945946,0.735353
0,0,1,0.925,0,0.075,1,0,0.645627,0,0.333333,0.333333,0.333333,0.0642857,0,0,0,0,0.5,0.75,0.5,0.333333,0,0,0,0,0,0.514286,0.1,0.616308,0.695107,0.726204,0.546831
0.17,0.73,0.1,1,0,0,0.83,0.17,0.619772,0,0.333333,0.333333,0.333333,0.114286,0,1,1,0,1,0.75,0,0,0.166667,0.166667,1,0.4,0.01,0.285714,0.666667,0.673846,0.702635,0.893067,0.741331
0.2,0.75,0.05,1,0,0,0.83,0.17,0.619772,0,0.333333,0.333333,0.333333,0.114286,0,1,1,0,1,0.75,0,0,0.166667,0.166667,1,0.4,0.01,0.285714,0.666667,0.550769,0.572773,0.611046,0.33878
0.12,0.83,0.05,1,0,0,0.83,0.17,0.619772,0,0.333333,0.333333,0.333333,0.114286,0,1,1,0,1,0.75,0,0,0.166667,0.166667,1,0.4,0.01,0.285714,0.666667,0.624615,0.685069,0.822562,0.617776
0,0.83,0.17,1,0,0,0.6,0.4,0.661597,0,0.666667,0.333333,0.333333,0.0656429,0,0,0,0,0.5,0.25,0.25,0.5,0,0,0,0,0,0.528571,1,0.612308,0.690088,0.830787,0.6018334
0.2,0.8,0,0.5,0.5,0,1,0,0.479087,1,1,1,0.666667,0.075,0,1,1,1,0.5,0.5,0.625,0.111111,0,0,0,0,0,0.285714,0.0777778,0.950769,0.483061,0.743831,0.605819
0,0,1,1,0,0,0.666667,0.333333,0.730038,0,0.333333,0.333333,0.333333,0.107143,0,0,0,0,0.5,0.25,0.1875,0.444444,0,0,0,0,0,0.8,0.111111,0.333231,0.708908,0.834313,0.33878
0,0,1,1,0,0,0.666667,0.333333,0.730038,0,0.333333,0.333333,0.333333,0.107143,0,0,0,0,0.5,0.25,0.1875,0.444444,0,0,0,0,0,0.8,0.111111,0.324615,0.683814,0.822562,0.318852
0,0,1,1,0,0,0.666667,0.333333,0.730038,0,0.333333,0.333333,0.333333,0.107143,0,0,0,0,0.5,0.25,0.1875,0.444444,0,0,0,0,0,0.8,0.111111,0.268615,0.727729,0.705053,0.243125
0,0,1,1,0,0,0.666667,0.333333,0.730038,0,0.333333,0.333333,0.333333,0.107143,0,0,0,0,0.5,0.25,0.1875,0.444444,0,0,0,0,0,0.8,0.111111,0.286154,0.759097,0.846063,0.322838
0,0,1,1,0,0,0.333333,0.666667,0.779468,0,0.333333,1,1,0.0507143,0,0,0,0,0.5,0.5,0.625,0.666667,0,0,0,0,0,0.8,0.111111,0.286769,0.721455,0.810811,0.295337
1,0,0,1,0,0,1,0,0.596958,0,0.333333,0.333333,0.333333,0.0507143,0,0,0,0,1,1,0,0,0.166667,0.166667,0.5,0.3,0,0.285714,0.111111,0.480308,0.541405,0.769683,0.351534
1,0,0,1,0,0,1,0,0.596958,0,0.333333,0.333333,0.333333,0.0507143,0,0,0,0,1,1,0,0,0.166667,0.166667,0.5,0.3,0,0.285714,0.111111,0.529231,0.508783,0.719154,0.340375
1,0,0,1,0,0,1,0,0.593156,0,0.333333,0.333333,0.333333,0.0507143,1,0,0,1,1,1,0,0,0.166667,0.166667,0.5,0.3,0,0.285714,0.111111,0.583385,0.646173,0.846063,0.559585
1,0,0,1,0,0,1,0,0.593156,0,0.333333,0.333333,0.333333,0.0507143,1,0,0,1,1,1,0,0,0.166667,0.166667,0.5,0.3,0,0.285714,0.111111,0.650462,0.622961,0.881316,0.62774
0,0,1,1,0,0,0.666667,0.333333,0.726236,0,0.333333,1,0.333333,0.0642857,0,0,0,0,1,0.75,0,0,0.166667,0.166667,0.5,0.6,0,0.8,0.111111,0,0,0,0
0,0,1,1,0,0,0.666667,0.333333,0.730038,0,0.333333,1,0.333333,0.0642857,0,0,0,0,1,0.75,0.375,0.333333,0,0,0,0,0,0.8,0.111111,0.460923,0.808657,0.881316,0.577122
1,0,0,1,0,0,0.58,0.42,0.680608,0,0.333333,0.333333,0.333333,0.142857,0,0,0,0,0.5,0.25,0.75,0.0555556,0,0,0,0,0,0.2,0.333333,0.252308,0.563363,0.773678,0.184536
0,0,1,1,0,0,1,0,0.657795,0,0.333333,1,0.333333,0.0642857,1,1,1,1,0.5,0.75,0.5,0.333333,0,0,0,0,0,0.857143,0.111111,0.452923,0.759724,0.925969,0.559984
0,0,1,1,0,0,1,0,0.657795,0,0.333333,1,0.333333,0.0642857,1,1,1,1,0.5,0.75,0.5,0.333333,0,0,0,0,0,0.857143,0.111111,0.448308,0.762233,0.927145,0.556397
0,0,1,1,0,0,0.666667,0.333333,0.730038,0,0.333333,0.333333,0.333333,0.05,0,0,0,0,0.5,0.25,0.1875,0.444444,0,0,0,0,0,0.8,0.0222222,0.332308,0.740276,0.810811,0.350737
0,0,1,1,0,0,0.666667,0.333333,0.730038,0,0.333333,0.333333,0.333333,0.05,0,0,0,0,0.5,0.25,0.1875,0.444444,0,0,0,0,0,0.8,0.0222222,0.301538,0.752823,0.869565,0.346752
0,0,1,1,0,0,0.666667,0.333333,0.730038,0,0.333333,0.333333,0.333333,0.05,0,0,0,0,0.5,0.25,0.1875,0.444444,0,0,0,0,0,0.8,0.0222222,0.310769,0.76537,0.857814,0.358709
0,0,1,1,0,0,0.666667,0.333333,0.730038,0,0.333333,0.333333,0.333333,0.05,0,0,0,0,0.5,0.25,0.1875,0.444444,0,0,0,0,0,0.8,0.0222222,0.366154,0.771644,0.846063,0.418493
0,0,1,1,0,0,0.666667,0.333333,0.730038,0,0.333333,0.333333,0.333333,0.05,0,0,0,0,0.5,0.25,0.1875,0.444444,0,0,0,0,0,0.8,0.0222222,0.350769,0.752823,0.810811,0.374651
0,0,1,1,0,0,0.666667,0.333333,0.730038,0,0.333333,0.333333,0.333333,0.05,0,0,0,0,0.5,0.25,0.1875,0.444444,0,0,0,0,0,0.8,0.0222222,0.369231,0.759097,0.787309,0.390594
0,0,1,1,0,0,0.666667,0.333333,0.722433,0,0.666667,0.333333,0.333333,0.0714286,0,0,0,0,0.5,0.75,0.375,0.277778,0,0,0,0,0.5,0.457143,0.111111,0.278769,0.6399,0.67215,0.21124
0,0,1,1,0,0,0.666667,0.333333,0.726236,0,0.666667,0.333333,0.666667,0.0857143,0,0,0,0,0.5,0.75,0.625,0.333333,0,0,0,0,0,0.8,0.0666667,0.375385,0.742158,0.787309,0.385413
0,0,1,1,0,0,0.666667,0.333333,0.726236,0,0.666667,0.333333,0.666667,0.0857143,0,0,0,0,0.5,0.75,0.625,0.333333,0,0,0,0,0,0.8,0.0666667,0.369538,0.737139,0.857814,0.410522
0,0,1,1,0,0,0.666667,0.333333,0.726236,0,0.666667,0.333333,0.666667,0.0857143,0,0,0,1,0.5,0.75,0.625,0.333333,0,0,0,0,0,0.8,0.0666667,0.368615,0.787955,0.904818,0.461937
0,0,1,1,0,0,0.666667,0.333333,0.726236,0,0.666667,0.333333,0.666667,0.0857143,0,0,0,1,0.5,0.75,0.625,0.333333,0,0,0,0,0,0.8,0.0666667,0.369538,0.804266,0.881316,0.460343
0,0,1,1,0,0,0.666667,0.333333,0.726236,0,0.333333,0.333333,0.666667,0.0857143,0,0,0,0,0.5,0.75,0.625,0.333333,0,0,0,0,0,0.8,0.0666667,0.401846,0.781681,0.881316,0.48625
0,0,1,1,0,0,0.666667,0.333333,0.726236,0,0.333333,0.333333,0.666667,0.0857143,0,0,0,0,0.5,0.75,0.625,0.333333,0,0,0,0,0,0.8,0.0666667,0.397846,0.768507,0.881316,0.473495
0,0,1,1,0,0,0.666667,0.333333,0.726236,0,0.333333,0.333333,0.666667,0.0857143,0,0,0,0,0.5,0.75,0.625,0.333333,0,0,0,0,0,0.8,0.0666667,0.399692,0.77478,0.846063,0.460343
0,0,1,1,0,0,0.666667,0.333333,0.726236,0,0.333333,0.333333,0.666667,0.0857143,0,0,0,0,0.5,0.75,0.625,0.333333,0,0,0,0,0,0.8,0.0666667,0.385846,0.763488,0.857814,0.443603
0,0,1,1,0,0,0.666667,0.333333,0.726236,0,0.333333,0.333333,0.666667,0.0857143,0,0,0,0,0.5,0.75,0.625,0.333333,0,0,0,0,0,0.8,0.0666667,0.413538,0.76537,0.775558,0.429653
0,0,1,1,0,0,0.666667,0.333333,0.726236,0,0.333333,0.333333,0.666667,0.0857143,0,0,0,0,0.5,0.75,0.625,0.333333,0,0,0,0,0,0.8,0.0666667,0.390769,0.771644,0.787309,0.414508
0,0,1,1,0,0,0.666667,0.333333,0.726236,0,0.333333,0.333333,0.666667,0.0857143,0,0,0,0,0.5,0.75,0.625,0.333333,0,0,0,0,0,0.8,0.0666667,0.312923,0.824969,0.822562,0.373854
0,0,1,1,0,0,0.666667,0.333333,0.726236,0,0.666667,0.333333,0.666667,0.0857143,0,0,0,0,0.5,0.75,0.625,0.333333,0,0,0,0,0,0.8,0.0666667,0.358154,0.804893,0.92832,0.470307
0,1,0,0,1,0,1,0,0.547529,1,1,0.666667,0.666667,0.0160714,1,0,1,1,0.5,0.5,0.625,1,0,0,0,0,0.8,0.2,0.111111,0.615385,0.297365,0.761457,0.243125
0,1,0,0,1,0,1,0,0.547529,1,1,0.666667,0.666667,0.0160714,1,0,1,1,0.5,0.5,0.625,1,0,0,0,0,0.8,0.2,0.111111,0.64,0.301757,0.742656,0.251096
0,1,0,0,1,0,1,0,0.547529,1,1,0.666667,0.666667,0.0160714,1,0,1,1,0.5,0.5,0.625,1,0,0,0,0,0.8,0.2,0.111111,0.606154,0.307403,0.761457,0.24711
0,1,0,0,1,0,1,0,0.547529,1,1,0.666667,0.666667,0.0160714,1,0,1,1,0.5,0.5,0.625,1,0,0,0,0,0.8,0.2,0.111111,0.655385,0.29862,0.719154,0.24711
0,1,0,0,1,0,1,0,0.547529,1,1,0.666667,0.666667,0.0160714,1,0,1,1,0.5,0.5,0.625,1,0,0,0,0,0.8,0.2,0.111111,0.584615,0.341907,0.716804,0.251096
0,0.95,0.05,1,0,0,1,0,0.58327,0,0.666667,0.333333,0.333333,0.0571429,0,0,0,0,0.5,0.75,0.5,0.666667,0,0,0,0,0.75,0.428571,0.111111,0.666462,0.589711,0.744653,0.515743
0,0.85,0.15,1,0,0,1,0,0.595057,0,0.666667,0.333333,0.333333,0.0571429,0,0,0,0,0.5,0.75,0.5,0.666667,0,0,0,0,0.75,0.285714,0.111111,0.661846,0.614806,0.756639,0.540056
0,0.7,0.3,1,0,0,1,0,0.601521,0,0.666667,0.333333,0.333333,0.0571429,0,0,0,0,0.5,0.75,0.5,0.666667,0,0,0,0,0.75,0.285714,0.111111,0.625538,0.646173,0.851704,0.606218
1,0,0,1,0,0,1,0,0.614068,0,0.333333,0.333333,0.333333,0.0785714,0,0,0,0,0.5,0.25,0.625,0.333333,0,0,0,0,0,0,0,0.559077,0.514429,0.391187,0.18892
0,0,1,1,0,0,0,1,0.878327,0,0.333333,0,1,0.0642857,0,0,0,0,0,0.75,0.25,0.333333,0,0,0,0,0,0.714286,0.0555556,0.165538,0.809285,0.834313,0.196094
0,0,1,1,0,0,0,1,0.878327,0,0.333333,0,1,0.0642857,0,0,0,0,0.5,0.75,0.25,0.333333,0,0,0,0.02,0,0.714286,0.0555556,0.181846,0.821832,0.904818,0.236748
1,0,0,0.75,0.25,0,1,0,0.448669,0,1,0.666667,0.666667,0.0642857,0,0,0,1,1,0.75,0,0,0.833333,0.5,0.666667,0.6,0,0.342857,0.222222,0.635385,0.600878,0.871445,0.584695
1,0,0,1,0,0,1,0,0.593156,0,1,0.666667,0.666667,0.0642857,0,0,0,0,1,0.75,0,0,0.833333,0.5,0.666667,0.6,0,0.4,0.222222,0.732308,0.467629,0.923149,0.555201
1,0,0,0,1,0,1,0,0.513308,1,1,0.666667,0.666667,0.0714286,1,0,0,0,0.5,1,0.5,0.5,0,0,0,0,0.7,0.285714,0.111111,0.139077,0.0941029,0.446533,0.0103627
0.9,0,0.1,1,0,0,1,0,0.6121673,1,1,0.666667,0.666667,0.0714286,0,1,1,1,0.5,1,0.5,0.444444,0,0,0,0,0.5,0.285714,0.111111,0.571385,0.627353,0.874266,0.550418
1,0,0,0,1,0,1,0,0.501901,1,1,0.666667,0.666667,0.0714286,0,0,0,0,0.5,1,0.5,0.444444,0,0,0,0,0.3,0.285714,0.111111,0.573846,0.388959,0.646298,0.253487
0,0,1,1,0,0,0.666667,0.333333,0.714829,0,1,1,0.666667,0.0535714,0,0,0,0,0.5,0.75,0.375,0.333333,0,0,0,0,0,0.457143,0.0555556,0.473538,0.708908,0.941128,0.555201
1,0,0,1,0,0,1,0,0.570342,0,0.666667,0.333333,0.333333,0.0642857,0,0,0,0,0.5,0.25,0.25,0.333333,0,0,0,0,0,0.2,0.333333,0.643077,0.621079,0.763807,0.538063
1,0,0,0.5,0.5,0,1,0,0.448669,1,1,0.666667,0.666667,0.0714286,0,0,0,0,1,0.25,0,0,1,1,0.416667,0.6,0,0.314286,0.5,0.766154,0.470514,0.774383,0.490235
1,0,0,1,0,0,1,0,0.570342,0,0.333333,0.333333,0.333333,0.214286,0,0,0,0,0.5,0.25,0.75,0.666667,0,0,0,0,0,0.2,0.333333,0.624923,0.649937,0.849589,0.607015
1,0,0,1,0,0,1,0,0.589354,0,0.333333,0.333333,0.333333,0.114286,0,0,0,0,0.5,0.25,0.8125,0.333333,0,0,0,0,0,0.285714,0.111111,0.621538,0.617942,0.634548,0.418493
0,0,1,1,0,0,0.666667,0.333333,0.722433,0,0.333333,0.333333,0.333333,0.0642857,1,0,0,1,0.5,0.75,0.5,0.444444,0,0,0,0,0,0.342857,0.111111,0.445231,0.734003,0.791657,0.454364
0,0,1,1,0,0,0.666667,0.333333,0.722433,0,0.333333,0.333333,0.333333,0.0642857,1,0,0,1,0.5,0.75,0.5,0.444444,0,0,0,0,0,0.371429,0.111111,0.443077,0.708908,0.801175,0.442806
0,1,0,0,1,0,1,0,0.528517,1,1,1,0.666667,0.0342857,0,1,0,1,0.5,0.75,0.625,0.333333,0,0,0,0,0,0.2,0.111111,0.601538,0.313676,0.748649,0.249103
0,0,1,1,0,0,0.666667,0.333333,0.722433,0,0.333333,0.333333,0.333333,0.0642857,1,0,0,1,0.5,0.75,0.5,0.5,0,0,0,0,0.15,0.571429,0.111111,0.468308,0.752823,0.891774,0.552411
0,1,0,0,1,0,1,0,0.532319,1,1,0.666667,0.666667,0.0285714,0,0,0,0,0.5,0.75,0.625,0.333333,0,0,0,0,0,0.271429,0.166667,0.613846,0.25596,0.684136,0.18892
0,1,0,0,1,0,1,0,0.532319,1,1,0.666667,0.666667,0.0285714,0,0,0,0,0.5,0.75,0.625,0.333333,0,0,0,0,0,0.271429,0.166667,0.584,0.242158,0.697767,0.173774
0,1,0,0,1,0,1,0,0.532319,1,1,0.666667,0.666667,0.0285714,0,0,0,0,0.5,0.75,0.625,0.333333,0,0,0,0,0,0.271429,0.166667,0.571385,0.239021,0.679201,0.163013
0,1,0,0,1,0,1,0,0.532319,1,1,0.666667,0.666667,0.0285714,0,0,0,0,0.5,0.75,0.625,0.333333,0,0,0,0,0,0.271429,0.166667,0.534462,0.242158,0.674971,0.153448
0,1,0,0,1,0,1,0,0.532319,1,1,0.666667,0.666667,0.0285714,0,0,0,0,0.5,0.75,0.625,0.333333,0,0,0,0,0,0.271429,0.166667,0.522462,0.220201,0.656639,0.134715
0,1,0,0,1,0,1,0,0.532319,1,1,0.666667,0.666667,0.0285714,0,0,0,1,0.5,0.75,0.625,0.333333,0,0,0,0,0,0.271429,0.166667,0.684308,0.309285,0.76604,0.284974
0,1,0,0,1,0,1,0,0.532319,1,1,0.666667,0.666667,0.0285714,0,0,0,1,0.5,0.75,0.625,0.333333,0,0,0,0,0,0.271429,0.166667,0.675385,0.299875,0.759107,0.270227
0,1,0,0,1,0,1,0,0.532319,1,1,0.666667,0.666667,0.0285714,0,0,0,1,0.5,0.75,0.625,0.333333,0,0,0,0,0,0.271429,0.166667,0.652,0.297992,0.748531,0.255879
0,1,0,0,1,0,1,0,0.532319,1,1,0.666667,0.666667,0.0285714,0,0,0,1,0.5,0.75,0.625,0.333333,0,0,0,0,0,0.271429,0.166667,0.656923,0.301757,0.713749,0.249103
0,1,0,0,1,0,1,0,0.532319,1,1,0.666667,0.666667,0.0285714,0,0,0,1,0.5,0.75,0.625,0.333333,0,0,0,0,0,0.271429,0.166667,0.607385,0.303639,0.732197,0.237545
1.00085,0.003473994,0.004115625,0.997487,0,0,1.0019,0.000115888,0.617247,0.001042655,0.672072,0.336911,0.336204,0.060004,0.00390042,0,0,0.004766936,0.506325,0.751925,0.501983,0.330378,0,0,0.001590794,0,0.197941,0.287914,0.112497,0.677538,0.608532,0.890717,0.646473
0.002214661,1.00034,0.002113911,1.00327,0,0.002462584,1.00325,0,0.566775,0.000309549,0.333639,0.328069,0.665624,0.230115,0.000709128,0,0.001391365,0,0.498621,0.998925,0.376981,0.225181,0,0.003613225,0,0.001591526,0.497814,0.357695,0.218397,0.796,0.694479,0.963572,0.935831
0.002390154,0.000428625,0.997356,0.999441,0,0.00316921,0.666184,0.332615,0.72345,0,0.339242,0.334439,1.00271,0.0487626,0,0.999691,0.002208133,1.00175,0.50383,0.751688,0.351987,0.276374,0.00215072,0.003503422,0,0.001234263,0,1.00477,0.05781752,0.422154,0.734003,0.79906,0.434436
0.995423,0,0.001937562,0.002361555,0.997546,0.004678049,0.002270044,1.00108,0.816746,0,0.335732,0.336539,0.330621,0.0719054,0,0,0,0,0.50295,0.243876,0.503495,0.495953,0.001473093,0,0.000498857,0.00220668,0,0.359869,0.338618,0.254154,0.514429,0.693302,0.170187
0,0.997717,0,0.001623113,1.00367,0.002750564,0.993814,0,0.514698,1.00035,0.99813,0.667685,1.00201,0.0286754,1.00025,0.999416,0.997033,0,0.497059,0.747809,1.00308,0.666167,0,0.000919344,0.000775884,0.002470347,0.122171,0.229843,0.11158,0.652,0.414053,0.786016,0.373854
0,0.999589,0.004306373,0,0.996903,0,0.997852,0,0.54379,0.998993,0.99675,0.664095,1.001,0.0285216,1.00118,0.997103,0.994674,1.00223,0.498538,0.751586,1.00136,0.67145,8.87E-05,0,0,0.000471715,0.118034,0.234287,0.110364,0.773846,0.514429,0.842421,0.589478
0.949703,0.0518453,0.006056301,0.99935,0.003051678,0,0.969947,0.03123224,0.615894,1.00332,0.667016,0.332462,0.332407,0.502002,1.00864,0,1.00089,0,0.994684,0.747842,0.001264774,0.001250923,0.170553,0.08071301,0.669424,0.246249,0.03785488,0.385435,0.03023,0.723077,0.66813,0.807286,0.686329
0,0.003132295,0.999799,0.000775375,0.999337,0,1.00462,0,0.49572,0.998868,0.998277,0.664951,0.667313,0.0330743,1.00208,0.996715,0.004196464,0.994542,0.500375,0.749081,0.376252,0.332227,0.001475657,0,0.000334102,0,0,0.1961,0.08682127,0.767385,0.470514,0.869565,0.545237
0,0.000921186,1.00277,0.997759,0.001116895,0,0,1.00014,0.866335,0.003168561,0.333816,0.004259203,0.99678,0.0213521,1.0012,0.000984364,0.002415769,0,1.00118,0.999161,0,0,0.335418,0.505027,0.326477,0.199251,0.118493,0.710079,0.058463,0.268923,0.771644,0.886016,0.323236
0.004757945,1.00035,0,1.00284,0,0,1.00293,0,0.587949,0,0.665723,0.33321,0.325037,0.0837479,0.999457,1.00451,0,1.00119,1.00234,1.00168,0,0,0.0505878,0.164973,0.66457,0.6026,0.197165,0.425656,0.112772,0.735077,0.646173,0.888367,0.743324
0,0.998276,0.002313576,0.99759,0.003123682,0.002614721,1.00697,0.000162757,0.579912,1.00274,0.664476,0.336235,0.332429,0.0698473,1.00071,0,0.996939,0.993997,0.501812,0.251561,0.501827,0.117367,0,0.002770659,0.001661697,0.004476345,0.002109046,0.425945,0.223951,0.763385,0.652447,0.916569,0.806297
0.0980621,0.896759,0.002378641,1.00424,0.001509362,0.004380663,0.995723,0,0.583167,1.00219,0.662161,0.334337,0.666994,0.0320272,0,0.002418776,0,0.998038,0.999754,0.751731,0.001864095,0,0.164042,0.161033,0.669845,0.598141,0.0977385,0.42599,0.113767,0.72,0.65872,0.884841,0.729374
0,0.996626,0.004395744,0.00268884,0.995766,0,0.999263,0,0.534708,0.006117045,0.337569,0.335255,0.327358,0.114659,1.00515,0.005446441,0,1.00372,0.999792,0.752682,0,0.003906383,0.166819,0.165381,0.836244,0.995589,0.998244,0.177108,0.664277,0.753846,0.181932,0.646298,0.159426
0,1.00028,0,0,0.997187,0,0.996846,0,0.539708,0.00234732,0.333817,0.333493,0.333539,0.143574,0,0.997382,0.998209,0,0.501861,0.250438,0.248904,0.444486,0,0.004803897,0,0,0.001130997,0.194667,0.331523,0.752308,0.14931,0.423032,0.0836987
0.997094,0,0.002319151,0,1.00036,0.00403523,0.996914,0.005080074,0.4972,0.001601629,0.334376,0.999333,0.333132,0.09061702,0,0.999498,0.999014,0,0.497108,0.497319,0.186616,0.337487,0.002201064,0,0,0.004657457,0.001556053,0.288455,0.225212,0.612923,0.236826,0.607873,0.155042
0.997067,0.003225443,0.000184462,0.50086,0.496178,0.000399063,0.593536,0.400693,0.555197,1.0006,0.995565,0.670319,0.664855,0.0630996,0,0,0.003063105,0.998723,1.00049,1.00406,0,0,0.170812,0.249268,0.668865,0.901113,0.701529,0.291514,0.104659,0.185231,0.357591,0.79906,0.0932642
0.252722,0.752142,0.000275509,0,0.902896,0.998373,1.00299,2.26E-05,0.537922,0.995786,0.997109,0.665208,0.339669,0.0720861,0.002570784,1.00121,0.004489386,0,0.496353,0.253503,0.630146,0.557855,0.003100813,0.003102509,0.006211823,0.000170665,0.429941,0.197034,0.108902,0.408308,0.207026,0.575793,0.0813073
0.998143,0.000637997,0.00117262,0,0.996288,0,0,1.00595,0.81787,0.000975152,0.337458,0.330969,0.331583,0.0712873,0,0,0.002755335,0.000844555,0.498573,0.24595,0.500234,0.500708,0.001093779,0,0.001009393,0,0,0.354474,0.335995,0.254154,0.55207,0.693302,0.130331
0,0,0.996678,0.94798,0.0482364,0,0.997387,0,0.603111,0.001630772,0.330052,1.00223,0.336052,0.0654666,0,0.996814,1.00348,0.00206117,1.00057,0.748258,0,0,0.130388,0.163037,0.585884,0.695016,0.007236109,0.287455,0.16511,0.533846,0.583438,0.776381,0.42487
0.15858,0.786687,0.0509916,1.00101,0.000277587,0.002462951,0.826658,0.174134,0.6078,1.00205,0.997999,0.664133,0.666878,0.0311878,0.001718408,0,0.001581384,0,0.49996,0.755955,0.624372,0.448788,0.002846327,0.001621012,0,0.00398331,0.000169533,0.283339,0.330692,0.609846,0.439147,0.819624,0.38621
0.158514,0.79053,0.0489315,0.825278,0.166011,0.002346597,0.8226,0.171333,0.559961,1.00288,0.998522,0.665048,0.668283,0.02791792,0.004861066,0.000648941,0,0.001977149,0.502141,0.751506,0.626428,0.443674,0,0,0.000312573,0,0,0.286423,0.339459,0.750154,0.439147,0.778378,0.449183
0.164467,0.786575,0.0512105,0.581193,0.420458,0.000991859,0.828214,0.17555,0.512479,1.00022,1.00089,0.666248,0.664746,0.0299243,0,0.002919347,0.000450088,0,0.496521,0.746869,0.624209,0.44265,0,0,0.004470761,0.000131488,0.001817407,0.287517,0.33557,0.796923,0.464241,0.816804,0.528099
0,0.000925646,1.00163,1.00203,0.002078293,0,0,1.00046,0.874842,0,0.334588,0,0.999649,0.0942233,0.000729422,0,0,0.000181082,0.50252,0.245044,0.375879,0.331913,0.001816166,0.001873402,0,0,0.001420834,0.714943,0.0526649,0.196923,0.74655,0.787309,0.203268
0.001933459,0.000697661,0.999829,0.702236,0.000720172,0.300058,0.001356949,1.00169,0.834673,0,0.330889,0,1.00172,0.0608,0,0.003715984,0,0.998678,0.999985,0.247935,0.00096451,0,0.333802,0.503272,0.327384,0.592646,0.003183796,0.714401,0.0561963,0.229231,0.963614,0.942421,0.36668
0.000834667,0.002183624,1.00425,0.968661,0,0.0303561,0,0.99829,0.872123,0,0.331389,0.0042452,0.997592,0.0611193,0,0.000746543,0,1.00068,1.00268,0.249763,0.001600864,0.002797245,0.327439,0.505776,0.325828,0.59959,0.000423028,0.717081,0.0581927,0.216615,0.909661,0.907168,0.313671
0.001801526,0.000511672,0.996542,0.988158,0.005224022,0.009391715,0.67034,0.334139,0.721783,0.002016622,0.331387,0.99838,0.329083,0.115919,0.001299776,0,0.001998083,0.99817,0.996928,0.748026,0,0.000489055,0.161408,0.168983,0.667852,0.599749,0.004284816,0.289091,0.0549574,0.44,0.588457,0.730905,0.330809
0.005286076,0.003234653,1.00344,0.999229,0,0,0.331263,0.666827,0.789776,0,0,0.996988,0.329234,0.0698118,0,0,0,0,0.4953,0.498774,0.313959,0.334283,0,0.005717946,0.00147353,0,0.001534273,0.452832,0.224208,0.256308,0.294856,0.387779,0.0518135
0,0.001221057,0.996756,0.944062,0.003972634,0.0533821,0.66525,0.333558,0.724669,0,0.331648,0.32737,0.332703,0.112472,0.003191893,0.006260064,0.003828247,1.00018,0.996001,0.750202,0,0.003459569,0.160481,0.164246,0.496172,0.600103,0,0.804752,0.106717,0.450154,0.767252,0.900118,0.546433
0.000790836,0.803388,0.207003,0.998423,0.002588517,0,0.997993,0.001986684,0.579068,0,0.329248,0.333231,0.670912,0.0916538,0.001398422,0.004771667,0,0.006003765,0.49778,0.743246,0.499965,0.331464,0,0,0,0.000632075,0.501737,0.426783,0.0563846,0.476923,0.489335,0.507638,0.21124
0.005430794,1.00756,0.002470049,0.999116,0,0,1.00027,0,0.572492,0,0.33424,0.334489,0.672898,0.0877323,0,0,0,0,0.497233,0.747726,0.504653,0.334482,0.006190056,0.001983205,0.002745319,0,0.497711,0.429705,0.0571275,0.692308,0.646173,0.822562,0.645676
0.000312797,1.00236,0.002824325,1.00062,0,0.001034634,0.997904,0.001651701,0.573106,0,0.333446,0.334034,0.668873,0.0928007,0.001438986,0,0,0,0.50211,0.753828,0.501251,0.336573,0.001913553,0.001601156,0.001291039,0.004022083,0.498648,0.426861,0.05522497,0.707692,0.646173,0.802585,0.64169
0.001133929,1.00084,0,0.997922,0,0,0.999273,0,0.571277,0,0.33562,0.328152,0.663036,0.0887572,0,0,0.000479197,0,0.496079,0.749472,0.5061,0.330743,0,0,0,0.000470453,0.501101,0.425206,0.0569466,0.713846,0.652447,0.776733,0.633719
0.00278735,0.995034,0,1.00319,0,0,1.00538,0,0.576106,5.45E-05,0.331094,0.332309,0.666977,0.0888369,0.002014442,0.00166929,0,0.001269765,0.502899,0.746651,0.497289,0.332333,0.000655586,0.003494668,0.001180574,0.001242034,0.498605,0.425314,0.0564982,0.68,0.621079,0.810811,0.605819
0,0,1.00216,0.979457,0,0.0217202,1.00337,0,0.633386,0.000421641,0.339013,0.330284,0.334841,0.0640269,0.006263746,0,0.007227151,0.004350202,0.49915,0.75325,0.502036,0.337739,0,0,0,0.003190325,0,0.514443,0.0964032,0.626462,0.596612,0.73913,0.485851
0,0.003077094,1.00138,0.904357,0.002283874,0.0976889,1.00027,0.000606001,0.642142,0,0.338165,0.336361,0.340468,0.0657501,0,0.000497784,0.001773816,0,0.500798,0.751469,0.495865,0.331714,0,0.003405708,0,0,0,0.516902,0.0998311,0.607385,0.700753,0.967098,0.722997
0.170109,0.729962,0.0969363,1.0003,0,0,0.831142,0.169286,0.618286,0.002886895,0.331163,0.328318,0.332411,0.117457,0,1.0014,0.998328,0.003899681,0.997764,0.746352,0.000825314,0.001180811,0.168413,0.167308,1.00285,0.397383,0.0131951,0.282489,0.668393,0.676923,0.708908,0.904818,0.761259
0.150114,0.753286,0.0973598,1.00334,0.001232089,0,0.836077,0.171105,0.619711,0.005862183,0.335729,0.327694,0.33389,0.111149,0,0.999715,1.00274,0.002115523,0.997363,0.746677,0,0,0.166046,0.162962,0.996794,0.400797,0.006635348,0.283129,0.669888,0.636923,0.658093,0.881316,0.649661
0.118129,0.827388,0.0512929,0.996758,0,0.000249754,0.82481,0.165077,0.618423,0.000999515,0.33275,0.335725,0.329325,0.113436,0,1.00241,0.995821,0,1.00248,0.757232,0.002497674,0.001182849,0.169826,0.169397,0.997844,0.398146,0.0109782,0.287222,0.667443,0.596923,0.654956,0.846063,0.581905
0.150834,0.852662,0.04669179,1.00345,0.001934805,0,0.843696,0.146409,0.612912,0.998954,0.661464,0.334388,0.6690978,0.0715811,0,1.00005,1.00063,0.000112086,0.998959,0.499281,0.000448323,0,0.165723,0.166507,0.832246,0.599158,0.202228,0.284464,0.670812,0.713538,0.695734,0.734313,0.640494
0.0244703,0.0766664,0.02293125,0.502727,0.498456,0.000382726,0.995402,0,0.477157,1.00004,1.00031,0.998569,0.669336,0.0727765,0,1.0016,1.0022,0.999226,0.500711,0.500754,0.621951,0.113199,0.003163427,0.003383081,0.006162786,0.001615156,0,0.2853,0.0791503,1,0.489335,0.843713,0.725389
0,0.000819802,0.999933,1.00392,0,4.16E-06,0.667317,0.330249,0.72921,0,0.335078,0.333374,0.334833,0.108068,0.003888683,0,0.001101956,0.003039627,0.500491,0.253836,0.191079,0.441897,0,0.00517009,0.000115475,0,0,0.804914,0.106694,0.335385,0.708908,0.846063,0.354723
0.002609179,0,0.995775,0.997672,0,0.000747776,0.664551,0.334771,0.735005,0,0.333388,0.331649,0.33535,0.108375,0,0.001033603,0,0,0.496002,0.253136,0.182671,0.439153,0.001412928,0.000518777,0.000860676,0,0.002300873,0.798694,0.115701,0.328615,0.759097,0.846063,0.370666
0.000547769,0.000153859,1.00216,1.00282,0.000178692,0,0.6655,0.336334,0.726317,0,0.328428,0.334168,0.33001,0.107465,0,0.002554811,0,0.002113745,0.500981,0.248865,0.189748,0.448707,0,0.001682157,0,0.003215792,0.005159932,0.803886,0.112395,0.272,0.752823,0.728555,0.263053
0.00255261,0,0.999318,1.00074,0.002212413,0,0.664656,0.333449,0.732106,0.002060926,0.330719,0.338476,0.338106,0.108968,0,0,0.000512289,0.00167428,0.503738,0.25203,0.183224,0.444495,0.003481451,0.006912386,0.003034005,0,0.003849803,0.798958,0.111707,0.284,0.759097,0.869565,0.330809
1.004,0.000785069,0.001927627,1.00221,0,0.001922233,0.9980574,0.003696314,0.59783,0.001796059,0.336936,0.333925,0.333981,0.0488401,0.002241863,0,0.004863396,0,0.995071,1.00051,0.002098811,0,0.161661,0.163653,0.498266,0.298838,0,0.288477,0.110533,0.540923,0.535759,0.636898,0.324033
0.999563,0,0.003627212,0.998122,0.006146774,0.000452368,1.00574,0,0.598919,0.001558763,0.337457,0.326121,0.331529,0.0512755,0,0,0.003887211,0.00047817,1.00154,1.00369,0.005954876,0,0.165129,0.163124,0.503908,0.300767,0,0.281995,0.114228,0.470769,0.501255,0.716804,0.296532
1.00274,0.001724481,0.001751284,0.998636,0.001828682,0,0.999527,0.001478302,0.592974,0,0.335271,0.33728,0.329802,0.0454083,1.00237,0.002910596,0.001201234,0.992283,1.00403,0.998335,0,0,0.168335,0.16561,0.500604,0.293431,0,0.287491,0.10971,0.685538,0.612296,0.819036,0.604225
1.00025,0.003590082,0,1.00064,0,0,1.00138,0.001619065,0.591352,0.004962017,0.332917,0.333995,0.335705,0.048366,0.998961,0.002877846,0,1.00191,1.00236,1.00026,0,0.002303729,0.162694,0.164071,0.49577,0.299553,0,0.281448,0.108851,0.618462,0.626098,0.848414,0.576724
0,0,1.00433,0.996203,0.003911954,0,0.335685,0.667999,0.724077,2.16E-05,0.331436,0.001633633,0.996665,0.0655053,0.001913564,0,0,0.00116043,0.500491,0.249396,0.249519,0.331451,0,0,0,0,0,1.00032,0.01165606,0.373846,0.602258,0.622797,0.244719
0,0,0.997292,0.991597,0,0.009569793,0.669134,0.33462,0.726119,0,0.332964,1.00088,0.331761,0.0643282,0.002880166,0.002161608,0,0,0.996881,0.745083,0.001397227,0.003196309,0.168672,0.16918,0.497624,0.604014,0.002650162,0.798194,0.112439,0,0,0,0
0.000292569,0.001233404,0.997297,1.00197,0,0.000784842,0.666761,0.335727,0.729779,0.002722598,0.333583,1.00129,0.334046,0.0638551,0,1.0048,0,0.997514,0.998037,0.745059,0.373366,0.334118,0.001641649,0.001470971,0,0.002746628,0,0.7996344,0.113959,0.5,0.828105,0.940423,0.683938
0.998367,0.004253379,0,1.00161,0,0,0.411252,0.592046,0.750731,0.001176106,0.326563,0.32719,0.331282,0.143649,0,0,0.000941032,0,0.49681,0.246862,0.749055,0.0523321,0,0.000523609,0.000820848,0,0,0.202896,0.33114,0.195385,0.523212,0.615746,0.111598
0.008418601,0.002692325,1.00004,1.00295,0.006428939,0.00539043,0.998366,0.00032251,0.654292,0,0.335534,0.997689,0.331066,0.06810743,1.00482,0.999099,0.999342,0.999554,0.506497,0.750738,0.49881,0.334336,0.000682241,0,0,0.005414931,0.004201429,0.85681,0.109086,0.457538,0.752196,0.924794,0.559187
0.003579399,0,0.999239,0,0.998464,0,1.00284,0,0.480702,0,0.337057,0.337829,0.326429,0.139182,0,0.995922,0,0.999219,0.493182,0.494493,0.249962,0.441139,0,0,0.003444261,0.000105838,0,0.285276,0.118205,0.851385,0.126098,0.340776,0.0661618
0.000747254,0,0.996279,0.996009,0,0.005759568,0.660112,0.331913,0.728322,0,0.331101,0.336872,0.33113,0.04976922,0.001727108,0.001921708,0,0.001177069,0.499408,0.245247,0.187957,0.446628,0,0.0043559,0.003510762,0.00447757,0.002773385,0.799997,0.0211507,0.323077,0.76537,0.869565,0.378637
0,0.003772614,0.998004,0.995932,0.00188635,0.00249287,0.672712,0.330721,0.737719,0.005271618,0.330937,0.331333,0.3258,0.0513717,0,0,0,0.002715003,0.502439,0.247875,0.19138,0.439125,0.000584476,0,0,0.002745613,0.001326706,0.802675,0.0281826,0.313846,0.727729,0.857814,0.342766
0,0,0.999393,0.998401,0,0.000541842,0.665095,0.334452,0.737741,0.000745985,0.335063,0.335202,0.332254,0.0498181,0.002464964,0.001408373,0.003786962,0.004140372,0.501655,0.246008,0.188847,0.4430857,0.000356547,0,0.00151468,0,0.003981226,0.801027,0.02443649,0.310769,0.771644,0.857814,0.362694
0,0.004703629,0.99882,1.00381,0.000644164,0,0.670824,0.331989,0.728729,0,0.334611,0.332307,0.335151,0.04785209,0.004141091,0.001265786,0,0,0.498949,0.249889,0.192075,0.442905,0,0.00171494,0,0,0.002274049,0.800565,0.0259665,0.369231,0.771644,0.857814,0.426465
0,0,1.00214,0.998557,0.00263768,0,0.667941,0.330299,0.731752,0,0.328886,0.329841,0.330164,0.053308,0,0,0,0.000720609,0.501331,0.24564,0.193564,0.443359,0,0.00174062,0.00280966,0,0,0.800418,0.0246842,0.344615,0.734003,0.775558,0.346752
0,0,1.00129,1.00294,0.003383072,0,0.670975,0.33399,0.725464,0.004473801,0.331909,0.339161,0.329676,0.0484086,0,0.001459522,0,0.001004828,0.502762,0.251594,0.186633,0.441923,0,0.003308541,0,0,0,0.800143,0.024312,0.356923,0.752823,0.79906,0.382623
0,0.004637507,1.00529,0.900293,0,0.0967063,0.667152,0.339126,0.716119,0,0.660832,0.336211,0.335558,0.0723751,0.00090815,0.002801017,0.000768208,0.994276,0.5065386,0.750031,0.379474,0.28155,0,0.004251537,0,0,0.502186,0.452001,0.116021,0.350462,0.696361,0.696827,0.30291
0,0,0.999515,0.995571,0,0.001593681,0.664458,0.333388,0.725043,2.03E-05,0.661791,0.332489,0.668694,0.0913565,0,0,0.003448576,2.95E-05,0.500069,0.748488,0.630784,0.33672,0,0,0.008526762,0.000473694,0,0.797685,0.0706236,0.367077,0.754705,0.810811,0.39458
0,0,1.00426,1.00283,0.002568085,0,0.663724,0.333578,0.72621,0.000628825,0.669288,0.330733,0.667669,0.0818665,0,0.001779999,0,0,0.498469,0.750123,0.625309,0.335664,0,0.002863292,0,0.003544622,0.001228703,0.804808,0.0633815,0.371077,0.728984,0.846063,0.402152
0.000569168,0.00126859,1.00013,0.999192,0.001573827,0.002132207,0.666913,0.334161,0.727582,0.003692733,0.666892,0.328869,0.670691,0.0908679,0,0,0,0.999691,0.497216,0.750627,0.623752,0.329827,0.00442759,0,0,0,0,0.800177,0.0657964,0.370462,0.804893,0.92832,0.48625
0,0,1.00244,0.998648,0.000931752,0,0.663119,0.33177,0.721474,0.000539565,0.672923,0.337164,0.666935,0.08360512,0,0,0,0.993666,0.498427,0.747341,0.624829,0.333674,0,0.001032438,0.001354335,0.000350703,0.005297824,0.799157,0.0625103,0.367077,0.793601,0.822562,0.420885
0,0,1.00103,1.00192,0,0.002090212,0.666279,0.340011,0.729983,0.000314161,0.334294,0.327996,0.670493,0.0838453,0,0,0,0,0.497165,0.753153,0.622563,0.33212,0,0,0,0.000326319,0.005288535,0.801406,0.0642385,0.404923,0.782936,0.869565,0.484257
0.000591165,0.001198954,0.999573,1.00398,0,0.00092379,0.67113,0.333451,0.72338,0.000301757,0.332151,0.33484,0.664277,0.08228,0,0.003002704,8.20E-05,0.001922023,0.492589,0.748007,0.624104,0.333673,0,0.001176026,0.002012487,0,0,0.798448,0.0651779,0.402462,0.769134,0.869565,0.473097
0,0,1.00085,0.999412,0.000318643,0.001888022,0.664617,0.336344,0.725253,0.002337232,0.333406,0.338646,0.663666,0.0819635,0.001696389,0,0.001774716,0,0.50144,0.746392,0.628422,0.335109,0.000230073,0.000448332,0,0.003331237,0.003163696,0.806713,0.06255,0.400923,0.769762,0.846063,0.458749
0.005098512,0.003027019,1.00068,0.998689,0.00581788,0.001761722,0.666783,0.325993,0.730815,0.007598511,0.331207,0.33307,0.668195,0.0885029,0,0,0,0,0.497866,0.749909,0.622067,0.330809,0.003605637,0,7.74E-06,0.001235863,0,0.798208,0.0623505,0.385231,0.766625,0.857814,0.442009
0,0,0.997194,0.99787,0,0.001390043,0.667682,0.334965,0.730188,0,0.332467,0.331689,0.673644,0.08662362,0,0.000527503,0,0.000287985,0.503993,0.749511,0.624504,0.328028,0,0.002855527,0,0.000619949,0.002614028,0.801251,0.0709022,0.384615,0.743413,0.846063,0.426465
0,0,0.997085,1.00152,0,0.002088129,0.666965,0.330655,0.727776,0,0.332542,0.333479,0.668609,0.0824907,0.005110292,0,0.002259248,0,0.498,0.753221,0.624997,0.336034,0,0.0030337,0,0.000450845,0.004709643,0.804798,0.0726594,0.363077,0.779172,0.810811,0.403348
0,0.004738426,1.00516,1.00333,0,0,0.666688,0.330486,0.724363,0,0.327554,0.335375,0.665793,0.0839021,0.00088497,0.005910733,0,0.001142929,0.494552,0.749022,0.62366,0.334166,0,0,0.00179286,0.002498281,0,0.800574,0.0663975,0.363077,0.79611,0.740306,0.373456
0,0,0.999082,0.000589241,1.00311,0,1.00412,0,0.493988,0,0.336236,0.997635,0.338247,0.0940361,0,0.997206,1.00101,1.00182,0.500148,0.746712,0.31583,0.661423,0,0.00214996,0,0.002969326,0.003227634,0.286867,0.218884,0.740308,0.183061,0.399765,0.0952571
0,1.0007,0.001210643,0.00091295,1.00236,0,0.998291,0,0.545438,0.997855,0.998814,0.666523,0.664855,0.0185216,1.00321,0,1.00252,1.00632,0.50424,0.498411,0.618375,0.996552,0,0.003399894,0.005482501,0.002880011,0.802675,0.198051,0.11188,0.624615,0.293601,0.769683,0.24711
0.003526571,1.00037,0.000311581,0,1.00123,0.00051125,0.99595,0.000374674,0.549861,0.998692,0.998536,0.669161,0.666184,0.0197622,1.0029,0.001692581,1.00053,1.00012,0.495004,0.502514,0.624887,0.999943,0,0,0.001298668,0,0.802707,0.194234,0.115595,0.649231,0.304266,0.740306,0.255082
0,1.00349,0.0068455,0,1.0037,0,0.998004,0,0.546829,0.994397,1.00643,0.670562,0.669938,0.0154751,0.997528,0,1.00188,0.994316,0.498546,0.501056,0.630853,1.0089,0.002117098,0.003261581,0,0.00263532,0.797758,0.205091,0.108296,0.6,0.311794,0.79671,0.263053
0,1.00318,0,0,0.999876,0.004269353,1.00587,0,0.547089,1.00442,0.999473,0.666918,0.665149,0.0125583,0.996838,0,1.00204,1.00564,0.500153,0.499642,0.62222,0.995772,0,0.000863105,0,0.00187544,0.799262,0.202533,0.110527,0.535385,0.336261,0.840188,0.267039
0.003241393,1.00022,0.002046468,0.001688275,0.993648,0.002512119,1.00115,0,0.549227,1.00184,1.0023,0.663661,0.667438,0.0191187,0.995457,0,1.00442,0.996929,0.496094,0.499573,0.626327,1.00359,0.001610704,0,0,0,0.799833,0.206528,0.114672,0.584615,0.341907,0.781434,0.27501
0,0.950177,0.0502834,0.998412,0,0,0.997608,0.000601987,0.583305,0,0.670314,0.330264,0.332798,0.0572058,0,0.003032426,0,0,0.502385,0.754632,0.501419,0.672508,0.001249457,0,0,0.003487404,0.758222,0.425583,0.108243,0.667385,0.583438,0.687662,0.469908
0,0.797033,0.202306,0.999441,0.001162056,0.002576108,1.00432,0,0.60444,0.000137017,0.667854,0.336573,0.332712,0.0529844,0,0,0.002271913,0,0.500901,0.74846,0.502676,0.663861,0,0,0.00082278,0,0.746323,0.283807,0.108297,0.668615,0.646173,0.850411,0.644878
0.001609644,0.701528,0.295668,0.996324,0.00076576,0.000999574,1.00461,0,0.594719,0,0.664722,0.333193,0.331088,0.05755779,0.002330291,0.000132329,0.004298471,0.002260908,0.499379,0.75111,0.502037,0.668995,0.002966,0,0,0.001781822,0.751414,0.277253,0.1103,0.629538,0.6399,0.777908,0.550418
0.996833,0.002144993,0.00476774,1.00052,0,0.000757427,0.998044,0,0.601918,0.001140157,0.335728,0.33154,0.332792,0.08069924,4.75E-05,0,0.003126926,1.00524,0.50003,0.252095,0.631296,0.337462,0.001888808,0.000990936,0.005428753,0.001931097,0.001634283,0.283879,0.109677,0.540615,0.437892,0.52738,0.224392
0.001525788,0,1.00143,0.997019,0,0,0.002509317,1.00448,0.878556,0,0.33806,0,0.999136,0.0620924,0,0.006864047,0,0.000953286,0,0.752113,0.248474,0.332801,0.001086379,0,0.004541499,0.00087916,0.000229515,0.714266,0.0558635,0.160923,0.821832,0.857814,0.198087
0.000344688,0.001702413,1.00102,0.999083,0.005028876,0,0.002835444,1.00015,0.880901,0.001253356,0.331608,0.001221379,1.00284,0.0654425,0,0,0,0,0.504534,0.749102,0.242958,0.3421953,0.000638974,0,0,0.0175236,0,0.715073,0.0559158,0.180923,0.846926,0.904818,0.242726
0.997355,0.001085704,0.000396847,0.752857,0.245923,0,1.00229,0,0.447063,0.00428385,1.00251,0.669856,0.661688,0.063261,0.002793744,0.004008998,0,0.998577,1.00018,0.752363,0,0,0.83218,0.498621,0.668454,0.60022,0.007429393,0.344932,0.22239,0.622769,0.600878,0.8613396,0.5663611
1.00623,0,0,0.99355,0,0.000101712,0.997883,0,0.613033,0.999845,0.997909,0.665709,0.661042,0.0692661,1.00371,0,0.001637311,0,0.497361,1.00423,0.500579,0.509426,0,0.001793096,0.000310267,0.000305649,0.700162,0.289677,0.11085,0.603077,0.577164,0.916569,0.560781
0.750827,0.255046,0,0.753,0.250919,0,1.00125,0.001277879,0.508758,0.998791,1.000854,0.662263,0.666327,0.067626,0.997577,0,0.002035792,0.003666281,0.496405,0.997544,0.499626,0.500892,0.003246331,0,0.00555913,0.0018019,0.69773,0.290354,0.107239,0.692923,0.501882,0.904818,0.55281
0.905867,0,0.102063,0.753055,0.24923,0.002595852,1.00261,0,0.528104,1.00251,0.999865,0.663872,0.665176,0.0679776,0.000463432,1.00289,1.00047,0.999467,0.498561,0.999502,0.4974,0.444678,0,0.004370082,0,0.000313699,0.396147,0.291506,0.111272,0.701538,0.526976,0.893067,0.579912
0.794814,0,0.193107,0.501823,0.502835,0,0.997002,0,0.51194,0.994867,1.00494,0.666496,0.664284,0.0693754,5.55E-05,1.00226,0.996659,0.999524,0.504691,1.00123,0.496173,0.447366,0.005674744,0.000590306,0.001749439,0,0.307316,0.289986,0.108087,0.633231,0.376412,0.713278,0.298924
0,0.004744861,0.997922,0.998584,0,0,0.664089,0.330804,0.706846,0.004954456,1.00124,0.997368,0.663366,0.0493571,1.0043,0.995461,0,0.998203,0.506678,0.753055,0.370323,0.33545,0,0,0,0.00425329,0.002995474,0.456856,0.0619196,0.478462,0.72271,0.949354,0.576724
0.998842,0,0.002649195,0.996354,0,0.000673658,1.00106,0,0.570319,0,0.666831,0.331729,0.335271,0.0623236,0.002168965,0,0.000952957,0.001959883,0.49279,0.249637,0.248755,0.336937,0,0,0.004844089,0,0,0.207207,0.333133,0.572308,0.633626,0.716804,0.482264
0.997174,0.003573057,0.001540374,0.499515,0.497961,0,0.997425,0,0.447443,1.00318,1.00404,0.663858,0.665565,0.0726957,0,0.001457475,0,0.000650134,1.00505,0.248239,0,0,0.996731,0.999116,0.416946,0.601478,0,0.310346,0.4971809,0.775385,0.464241,0.767333,0.48625
1.00009,0,0.007307635,1.0031,0,0,0.99504,0.004886402,0.589813,0.002909496,0.329921,0.334818,0.331667,0.113349,0.001147806,0,0,0.000597526,0.502576,0.248038,0.808291,0.336762,0.004830863,0,0.001476315,0,0.000916596,0.283301,0.114688,0.575385,0.696361,0.787309,0.518135
0,0,1.00101,1.0027,0.005878687,0,0.667508,0.331447,0.719422,0.001613818,0.335221,0.336338,0.332481,0.06435432,0.998134,0,0,1.00552,0.50368,0.749732,0.49931,0.445115,0.004243898,0.007620265,0.005557796,0.001153778,0.001666004,0.344174,0.113305,0.458154,0.740276,0.907521,0.539657
0.004459757,0.000187882,1.00355,0.999659,0.001581487,0,0.666866,0.333346,0.722524,0,0.333684,0.335464,0.328479,0.068918,1.00565,0.000966682,0.003395162,1.00209,0.504307,0.75625,0.499033,0.446541,0,0,0,0,0.000600986,0.366218,0.11398,0.449538,0.74655,0.790247,0.467517
0.000733763,0.003897127,1.0034,0.997895,0.003175744,0,0.672658,0.33987,0.719908,0,0.332851,0.32967,0.33388,0.0621825,0.999822,0,0.002122277,0.996143,0.499448,0.753897,0.498478,0.447094,0,9.87E-05,0.000449831,0.001794491,0,0.34598,0.108677,0.478462,0.721455,0.888837,0.540853
0.00132265,1.00482,0,0,0.998819,0.002431334,0.999932,0,0.523877,1.00203,0.999061,1.00208,0.667373,0.0298698,0,1.00318,0,1.00097,0.500848,0.750894,0.62457,0.337307,0.002413921,0,0.006710077,0,0,0.201442,0.112527,0.590154,0.207026,0.680494,0.147868
0,0,0.999396,1.00305,0,0.002256841,0.669677,0.328415,0.720081,0.001525209,0.329827,0.332634,0.336411,0.349886,1.00425,0.000233112,0.00276647,1.0017,0.506135,0.743964,0.497469,0.498149,0,0,0,0.002564753,0.143536,0.57387,0.106458,0.457231,0.740276,0.857697,0.510163
0.001433731,0.997566,0,0.001484271,1.00815,0.000471898,1.00091,0.004656698,0.530461,1.00092,0.999679,0.666864,0.668062,0.0258785,0,0,0.003670271,0.001551289,0.505455,0.749617,0.626282,0.335149,0.000347623,0,0.001663363,0.001982819,0.000362197,0.276154,0.165192,0.572308,0.25596,0.700235,0.180151
0,1.0005,0.002496801,0,1.0012,0,1.00234,0.001579021,0.53528,1.00207,0.997489,0.671998,0.665069,0.0219022,0.004379228,0,0.001308215,0.001799812,0.494113,0.750536,0.621974,0.334396,0,0,0.001749796,0,0,0.265585,0.165122,0.607385,0.233375,0.687427,0.171383
0.001011551,1.00113,0,0,1.00087,0.003059433,1.0051,0,0.535272,1.00204,1.00003,0.664064,0.669926,0.0287193,0,0.000801278,0.007354525,0.001996682,0.504053,0.74908,0.620549,0.33089,0,0.001341321,0.001737946,0,0.003033152,0.271523,0.163501,0.549538,0.231493,0.712691,0.159426
0,0.995101,0.002042349,0,0.994909,0.002576452,0.998819,0.005095025,0.530064,0.999849,0.993947,0.665926,0.670235,0.0286184,0,0,0,0,0.496725,0.752459,0.622371,0.335524,0,0,0,0,0.00178814,0.273139,0.167044,0.562154,0.229611,0.669683,0.152252
0,1.00034,0.002141646,0,0.999144,0.002783878,0.999927,0,0.532032,0.996353,1.00224,0.670093,0.668603,0.0294985,0.0012349,0,0,0.000986817,0.502509,0.746974,0.62561,0.331138,0.000479739,0.002702713,0.000365004,0,0,0.272772,0.166449,0.508,0.2133,0.677908,0.129135
0,1.00236,0,0,0.997561,0,0.998993,0.002365087,0.530562,1.00241,1.00001,0.665212,0.661846,0.0266225,0.002252589,0.000491746,0.002223961,0.997467,0.500624,0.750498,0.631466,0.33666,0.000182501,0,0.003126917,0,0,0.268368,0.169804,0.673538,0.309912,0.76416,0.280191
0,1.0038,0,0,0.99948,0,1.00828,0.004377685,0.534712,0.995306,0.999215,0.666514,0.669084,0.0256773,0,0.004761895,0.00117528,0.999808,0.496233,0.749019,0.627778,0.331591,0.009503552,0,0,0.001490995,0.001729332,0.269217,0.165356,0.682154,0.295483,0.756757,0.267836
0,0.997407,0,0,0.996012,0,0.999216,0.003455472,0.529416,0.999456,1.00085,0.665922,0.661188,0.0315467,0,0.001308434,0.0103828,0.997147,0.503837,0.752786,0.620644,0.335047,0.000141206,0.002595339,0.006724047,0.003425302,0.002495114,0.273347,0.165842,0.674769,0.299247,0.720094,0.25548
0.002828335,1.00231,0,0.005487,0.99713,0.001416984,1.00074,0,0.531112,1.00108,1.00533,0.668383,0.667205,0.0245113,0.001219401,0.0010966,0,0.997835,0.500137,0.75159,0.625402,0.333392,0,0.00354878,0,0,0,0.276587,0.172735,0.631077,0.304266,0.731022,0.246712
0.000955138,0.997659,0,0,1.00122,0,1.00044,0.000904119,0.533515,0.995443,1.00076,0.670225,0.669207,0.0259163,0,0.001790478,0,1.00553,0.500354,0.751858,0.621845,0.334606,0.002116588,0,0,0.001237447,0.00223283,0.270409,0.164119,0.614462,0.299875,0.72785,0.235951
0,0.996697,0.004887306,0.005823132,0.997294,0.006608205,0.997716,0.003599131,0.53215,1.00539,0.999787,0.669974,0.666827,0.028735,0.004767427,0,0,1.00078,0.496474,0.747347,0.627855,0.340133,0,0,0,0,0,0.273758,0.172273,0.611077,0.303011,0.70517,0.229175