File: 2.Decision tree/.ipynb_checkpoints/data-checkpoint.csv
MA_ratio,FA_ratio,Cs_ratio,Pb_ratio,Sn_ratio,other_ratio,I_ratio,Br_ratio,po_electrode,ETL/ETM,HTL/HTM,ne_eletrode,effective area (cm^2),additive_O,additive_I,additive_H,passivation,step,dissolvent,coated1_s(rpm),coated1_t (s),coated2_s(rpm),coated2_t (s),anti-solvent,anneal_T (℃),anneal_t (min),,Jsc (mA/cm2),Voc (V),FF,PCE (%)
0.933271,0,0,0.526316,0,0,0.824516,0,1,3,1,0.666667,0.05,0,0,0,1,0,0.75,0.5,0.222222,0,0,0.115,0.285714,0.0222222,,0.650769,0.644918,0.920094,0.479075
0.933271,0,0,0.526316,0,0,0.824516,0,1,3,1,1,0.0428571,0,0,0,0,0,0.25,1,0.333333,0,0,0,0.285714,0.166667,,0.277538,0.345044,0.716804,0.11957
0,0,0.933271,0.526316,0,0,0.549677,0.333333,0.5,1,0.333333,1,0.05,0,0,0,0,0,0.75,0.35,0.277778,0,0,0,1,0.0555556,,0.361846,0.608532,0.681551,0.263053
0,0,0.933271,0.526316,0,0,0.549677,0.333333,0.5,1,0.333333,1,0.05,0,1,0,1,0,0.75,0.35,0.277778,0,0,0,1,0.0555556,,0.430154,0.734003,0.869565,0.478278
0.139991,0.818882,0,0.526316,0,0,0.700838,0.15,0.5,1,0.333333,0.333333,0.0504286,0,0,0,0,1,0.5,0.625,0.5,0.833333,0.5,0,0.285714,0.666667,,0.710154,0.671267,0.728555,0.616182
0.933271,0,0,0.526316,0,0,0.824516,0,1,2,0.666667,0.333333,1,1,0,1,0,1,0.75,0.125,0.0555556,0.666667,0.2,0.04,0.385714,0.0333333,,0.650769,0.660602,0.766157,0.579115
0,0,0.933271,0,1,0,0.824516,0,1,3,1,0.666667,0.0428571,0,0,0,1,0,0.75,0.375,0.333333,0,0,0,0.2,0.0888889,,0.443692,0.395232,0.705053,0.219609
0.0466636,0.915222,0,1,0,0,0.618387,0.0833333,0.5,2,0.666667,0.333333,0.0857143,1,1,0,1,1,1,0.0375,0.111111,0.666667,0.5,0.2,0.428571,0.111111,,0.759692,0.683814,0.878966,0.802312
0,0.963391,0,0,1,0,0.824516,0,1,3,1,0.666667,0.0635714,0,0,0,1,1,0.5,0.125,0.133333,0.833333,0.8,0.08,0.285714,0.133333,,0.688308,0.457967,0.846063,0.46951
0.839944,0,0.0933271,0.526316,0,0,0.824516,0,1,2,0.666667,0.666667,0.0285714,0,1,1,1,1,0.75,0.125,0.111111,0.666667,0.5,0.1,0.428571,0.111111,,0.701538,0.652447,0.773208,0.621762
0,0,0.933271,0,1,0,0,1,0.5,1,0.333333,0.333333,0.114286,0,1,1,0,0,0.5,0.25,0.333333,0,0,0,0.285714,0.111111,,0.28,0.263488,0.6698,0.0864886
0.134858,0.679672,0.139991,0.526316,0,0,0.684348,0.17,0.5,1,0.333333,0.333333,0.114286,0,0,0,0,1,0.75,0.125,0.111111,1,0.333333,0.1,0.285714,0.666667,,0.596923,0.68256,0.810811,0.581905
0.933271,0,0,0.394737,0.25,0,0.494709,0.4,1,3,1,0.666667,0.0714286,0,0,0,1,1,0.75,0.125,0.166667,0.666667,0.75,0.7,0.285714,0.111111,,0.530769,0.570891,0.893067,0.475488
0,0,1,0,0,1,0.883468,0,0.5,1,0.333333,0.666667,0.09,0,0,0,0,0,0.75,0.1875,0.222222,0,0,0,0.314286,0.333333,,0.0661538,0.53325,0.705053,0.0434436
0,0,0.933271,0.526316,0,0,0.824516,0,0.5,1,0.333333,0.333333,0.0642857,0,1,1,0,1,0.75,0.1,0.111111,0.583333,0.583333,0,0.285714,0.166667,,0.492923,0.558344,0.664982,0.321642
0,0,0.933271,0.526316,0,0,0.824516,0,0.5,1,0.333333,1,0.0446429,0,0,0,0,0,0.5,0.25,0.333333,0,0,0,0.314286,0.111111,,0.414154,0.44542,0.540541,0.177361
0,0,0.933271,0.526316,0,0,0,1,0.5,1,0.333333,0.333333,0.114286,0,0,0,0,0,0.25,0.3125,0.666667,0,0,0,0.214286,0.333333,,0.188,0.759097,0.869565,0.218015
0,0,0.933271,0.526316,0,0,0.824516,0,0.5,1,0.333333,1,0.714286,0,0,0,0,0,0.25,0.25,0.333333,0,0,0,0.2,0.333333,,0.214154,0.790464,0.6698,0.199283
0,0,0.933271,0.505263,0,0.0559832,0,1,0.5,1,0.333333,1,0.0642857,0,0,0,1,1,0.25,0.25,0.333333,0.333333,0.5,0,0.714286,0.0555556,,0.148923,0.951066,0.895417,0.222798
0,0,0.933271,0.505263,0,0.0559832,0,1,0.5,1,0.333333,1,0.0642857,0,0,0,1,1,0.25,0.25,0.333333,0.333333,0.5,0,0.714286,0.0555556,,0.214462,0.974906,0.925969,0.340375
0,0,0.933271,0.510526,0,0.0419874,0,1,0.5,1,0.333333,1,0.0642857,0,0,0,1,1,0.25,0.25,0.333333,0.333333,0.5,0,0.714286,0.0555556,,0.216615,0.909661,0.907168,0.313671
0,0,0.933271,0.515789,0,0.0279916,0.549677,0.333333,0.5,1,0.333333,0.333333,0.113571,0,0,0,1,1,0.75,0.125,0.111111,0.666667,0.5,0,0.285714,0.0555556,,0.470769,0.654329,0.821387,0.438422
0,0,0.933271,0.526316,0,0,0,1,0.5,1,0.333333,1,0.0642857,0,0,0,0,0,0.75,0.25,0.333333,0,0,0,0.714286,0.111111,,0.225846,0.784191,0.740306,0.231965
0,0,0.933271,0.510526,0,0.0419874,0.549677,0.333333,0.5,1,0.333333,0.333333,0.114286,0,0,0,1,1,0.75,0.125,0.111111,0.5,0.5,0,0.8,0.111111,,0.450462,0.757842,0.875441,0.525309
0.886608,0,0.0466636,0.526316,0,0,0.824516,0,0.5,1,0.333333,0.666667,0.0892857,0,0,0,0,0,0.75,0.5,0.333333,0,0,0.5,0.428571,0.0555556,,0.655385,0.627353,0.809636,0.585891
0,0.963391,0,0.526316,0,0,0.824516,0,0.5,1,0.333333,0.666667,0.0892857,0,0,0,0,0,0.75,0.5,0.333333,0,0,0.5,0.428571,0.0555556,,0.704615,0.65872,0.822562,0.669589
0,0.963391,0,0.526316,0,0,0.824516,0,0.5,1,0.333333,0.666667,0.0892857,0,0,0,0,0,0.75,0.5,0.333333,0,0,0.5,0.428571,0.0555556,,0.689231,0.6399,0.820212,0.633719
0,0.963391,0,0.526316,0,0,0.824516,0,0.5,1,0.333333,0.666667,0.0892857,0,0,0,0,0,0.75,0.5,0.333333,0,0,0.5,0.428571,0.0555556,,0.701538,0.652447,0.842538,0.681546
0,0.963391,0,0.526316,0,0,0.824516,0,0.5,1,0.333333,0.666667,0.0892857,0,0,0,0,0,0.75,0.5,0.333333,0,0,0.5,0.428571,0.0555556,,0.692308,0.664994,0.858989,0.697489
0,0.963391,0,0.526316,0,0,0.824516,0,0.5,1,0.333333,0.333333,0.114286,0,0,0,0,1,0.75,0.125,0.111111,1,0.25,0.1,0.428571,0.111111,,0.658462,0.507528,0.695652,0.414508
0.079328,0.598748,0.0466636,0.526316,0,0,0.68531,0.168833,0.5,1,0.333333,0.333333,0.114286,0,1,1,0,1,0.75,0.125,0.111111,1,0.333333,0.01,0.285714,0.666667,,0.698462,0.695734,0.869565,0.741331
0.079328,0.526975,0.139991,0.526316,0,0,0.675691,0.1695,0.5,1,0.333333,0.333333,0.114286,0,1,1,0,1,0.75,0.125,0.111111,1,0.333333,0.01,0.285714,0.666667,,0.615385,0.711418,0.752056,0.577919
0.0466636,0.722543,0.139991,0.526316,0,0,0.659612,0.2,0.5,1,0.333333,0.333333,0.114286,0,1,1,0,1,0.75,0.125,0.111111,1,0.333333,0.01,0.285714,0.666667,,0.649231,0.664994,0.881316,0.669589
0.0583294,0.722543,0.233318,0.526316,0,0,0.666483,0.170833,0.5,1,0.333333,0.333333,0.114286,0,1,1,0,1,0.75,0.125,0.111111,1,0.333333,0.01,0.285714,0.666667,,0.636923,0.655583,0.775558,0.569948
0.0195987,0.818882,0.0933271,0.526316,0,0,0.673354,0.2,0.5,1,0.333333,0.333333,0.114286,0,1,1,0,1,0.75,0.125,0.111111,1,0.333333,0.01,0.285714,0.666667,,0.646154,0.671895,0.846063,0.645676
0.0643957,0.818882,0.158656,0.526316,0,0,0.662361,0.176667,0.5,1,0.333333,0.333333,0.114286,0,1,1,0,1,0.75,0.125,0.111111,1,0.333333,0.01,0.285714,0.666667,,0.627692,0.665621,0.857814,0.629733
0.125992,0.736994,0.0933271,0.526316,0,0,0.700838,0.15,1,2,0.666667,0.666667,0.0728571,0,1,1,0,1,0.5,0.125,0.111111,0.833333,0.5,0.2,0.285714,0.666667,,0.686769,0.687578,0.716216,0.603826
0.0219319,0.0910405,0.0284648,0.319211,0.6065,0,1,0,1,3,1,0.666667,0.075,0,1,1,1,1,0.5,0.625,0.111111,0,0,0,0.285714,0.0777778,,1,0.489335,0.843713,0.725389
0.167989,0.693642,0.0933271,0.263158,0.5,0,0.824516,0,1,3,1,0.666667,0.075,0,1,1,1,1,0.5,0.625,0.111111,0,0,0,0.285714,0.0777778,,0.815385,0.451694,0.721504,0.494221
0,0,0.933271,0.526316,0,0,0.549677,0.333333,0.5,1,0.333333,0.333333,0.107143,0,0,0,0,0,0.25,0.1875,0.444444,0,0,0,0.8,0.111111,,0.295385,0.76537,0.869565,0.342766
0,0,0.933271,0.526316,0,0,0.549677,0.333333,0.5,1,0.333333,0.333333,0.107143,0,0,0,0,0,0.25,0.1875,0.444444,0,0,0,0.8,0.111111,,0.332615,0.759097,0.857814,0.378637
0,0,0.933271,0.526316,0,0,0.549677,0.333333,0.5,1,0.333333,0.333333,0.107143,0,0,0,0,0,0.25,0.1875,0.444444,0,0,0,0.8,0.111111,,0.286769,0.740276,0.834313,0.314866
0,0,0.933271,0.526316,0,0,0.549677,0.333333,0.5,1,0.333333,0.333333,0.107143,0,0,0,0,0,0.25,0.1875,0.444444,0,0,0,0.8,0.111111,,0.333846,0.752823,0.822562,0.362694
0.933271,0,0,0.526316,0,0,0.824516,0,0.5,1,0.333333,0.333333,0.0507143,0,0,0,0,1,0.25,0.125,0.111111,0.5,0.25,0,0.285714,0.111111,,0.450462,0.538269,0.808461,0.34436
0.933271,0,0,0.526316,0,0,0.824516,0,0.5,1,0.333333,0.333333,0.0507143,0,0,0,0,1,0.25,0.125,0.111111,0.5,0.25,0,0.285714,0.111111,,0.494769,0.494354,0.692127,0.29733
0.933271,0,0,0.526316,0,0,0.824516,0,0.5,1,0.333333,0.333333,0.0507143,1,0,0,1,1,0.25,0.125,0.111111,0.5,0.25,0,0.285714,0.111111,,0.684923,0.612296,0.804935,0.593065
0.933271,0,0,0.526316,0,0,0.824516,0,0.5,1,0.333333,0.333333,0.0507143,1,0,0,1,1,0.25,0.125,0.111111,0.5,0.25,0,0.285714,0.111111,,0.680308,0.628607,0.884841,0.665205
0.119459,1,0.0475968,0.674737,0,0,0.898447,0.170833,0.5,1,0.333333,0.333333,0.714286,0,0,0,0,1,0.75,0.25,0.111111,1,0.5,0.2,0.285714,0.666667,,0.799385,0.626098,0.384606,0.250299
0,0,0.933271,0.526316,0,0,0.549677,0.333333,0.5,1,0.333333,0.333333,0.0642857,0,1,0,1,1,0.75,0.125,0.111111,0.5,0.5,0,0.8,0.111111,,0.5,0.828105,0.940423,0.683938
0.933271,0,0,0.526316,0,0,0.338051,0.49,0.5,1,0.333333,0.333333,0.142857,0,0,0,0,0,0.25,0.75,0.0555556,0,0,0,0.2,0.333333,,0.195385,0.523212,0.615746,0.111598
0.559963,0.385356,0,0.526316,0,0,0.824516,0,0.5,1,0.333333,0.333333,0.203571,0,0,0,0,1,0.25,0.8125,0.111111,0.003333333,0.5,0,0.214286,0.111111,,0.558462,0.644291,0.840188,0.534077
0,0,0.933271,0,1,0,0.274839,0.666667,0.5,1,0.333333,0.333333,0.142857,0,1,0,1,0,0.5,0.25,0.444444,0,0,0,0.285714,0.111111,,0.356,0.195107,0.505288,0.0621762
0,0,0.933271,0.526316,0,0,0.549677,0.333333,0.5,1,0.333333,0.333333,0.05,0,0,0,0,0,0.25,0.1875,0.444444,0,0,0,0.8,0.0222222,,0.323077,0.76537,0.869565,0.378637
0,0,0.933271,0.526316,0,0,0.549677,0.333333,0.5,1,0.333333,0.333333,0.05,0,0,0,0,0,0.25,0.1875,0.444444,0,0,0,0.8,0.0222222,,0.313846,0.727729,0.857814,0.342766
0,0,0.933271,0,1,0,0,1,0.5,1,0.333333,0.333333,0.05,0,0,0,0,0,0.25,0.1875,0.444444,0,0,0,0.8,0.0222222,,0.310769,0.771644,0.857814,0.362694
0,0,0.933271,0,1,0,0,1,0.5,1,0.333333,0.333333,0.05,0,0,0,0,0,0.25,0.1875,0.444444,0,0,0,0.8,0.0222222,,0.369231,0.771644,0.857814,0.426465
0,0,0.933271,0.526316,0,0,0.549677,0.333333,0.5,1,0.333333,0.333333,0.05,0,0,0,0,0,0.25,0.1875,0.444444,0,0,0,0.8,0.0222222,,0.344615,0.734003,0.775558,0.346752
0,0,0.933271,0,1,0,0,1,0.5,1,0.333333,0.333333,0.05,0,0,0,0,0,0.25,0.1875,0.444444,0,0,0,0.8,0.0222222,,0.356923,0.752823,0.79906,0.382623
0,0,0.933271,0.473684,0,0.139958,0.494709,0.4,0.5,2,0.666667,0.333333,0.0714286,0,0,0,1,0,0.75,0.375,0.277778,0,0,0.5,0.457143,0.111111,,0.350462,0.696361,0.696827,0.30291
0,0,0.933271,0.526316,0,0,0.549677,0.333333,0.5,2,0.666667,0.666667,0.0857143,0,0,0,0,0,0.75,0.625,0.333333,0,0,0,0.8,0.0666667,,0.367077,0.754705,0.810811,0.39458
0,0,0.933271,0.526316,0,0,0.549677,0.333333,0.5,2,0.666667,0.666667,0.0857143,0,0,0,0,0,0.75,0.625,0.333333,0,0,0,0.8,0.0666667,,0.371077,0.728984,0.846063,0.402152
0,0,0.933271,0.526316,0,0,0.549677,0.333333,0.5,2,0.666667,0.666667,0.0857143,0,0,0,1,0,0.75,0.625,0.333333,0,0,0,0.8,0.0666667,,0.370462,0.804893,0.92832,0.48625
0,0,0.933271,0.526316,0,0,0.549677,0.333333,0.5,2,0.666667,0.666667,0.0857143,0,0,0,1,0,0.75,0.625,0.333333,0,0,0,0.8,0.0666667,,0.367077,0.793601,0.822562,0.420885
0,0,0.933271,0.526316,0,0,0.549677,0.333333,0.5,1,0.333333,0.666667,0.0857143,0,0,0,0,0,0.75,0.625,0.333333,0,0,0,0.8,0.0666667,,0.404923,0.782936,0.869565,0.484257
0,0,0.933271,0.526316,0,0,0.549677,0.333333,0.5,1,0.333333,0.666667,0.0857143,0,0,0,0,0,0.75,0.625,0.333333,0,0,0,0.8,0.0666667,,0.402462,0.769134,0.869565,0.473097
0,0,0.933271,0.526316,0,0,0.549677,0.333333,0.5,1,0.333333,0.666667,0.0857143,0,0,0,0,0,0.75,0.625,0.333333,0,0,0,0.8,0.0666667,,0.400923,0.769762,0.846063,0.458749
0,0,0.933271,0.526316,0,0,0.549677,0.333333,0.5,1,0.333333,0.666667,0.0857143,0,0,0,0,0,0.75,0.625,0.333333,0,0,0,0.8,0.0666667,,0.385231,0.766625,0.857814,0.442009
0,0,0.933271,0.526316,0,0,0.549677,0.333333,0.5,1,0.333333,0.666667,0.0857143,0,0,0,0,0,0.75,0.625,0.333333,0,0,0,0.8,0.0666667,,0.384615,0.743413,0.846063,0.426465
0,0,0.933271,0.526316,0,0,0.549677,0.333333,0.5,1,0.333333,0.666667,0.0857143,0,0,0,0,0,0.75,0.625,0.333333,0,0,0,0.8,0.0666667,,0.363077,0.779172,0.810811,0.403348
0,0,0.933271,0.526316,0,0,0.549677,0.333333,0.5,1,0.333333,0.666667,0.0857143,0,0,0,0,0,0.75,0.625,0.333333,0,0,0,0.8,0.0666667,,0.363077,0.79611,0.740306,0.373456
0,0,0.933271,0,1,0,0.824516,0,0.5,1,0.333333,0.333333,0.0964286,0,1,1,1,0,0.75,0.3125,0.666667,0,0,0,0.285714,0.222222,,0.740308,0.183061,0.399765,0.0952571
0,0.963391,0,0,1,0,0.824516,0,1,3,1,0.666667,0.0160714,1,0,1,1,0,0.5,0.625,1,0,0,0.8,0.2,0.111111,,0.624615,0.293601,0.769683,0.24711
0,0.963391,0,0,1,0,0.824516,0,1,3,1,0.666667,0.0160714,1,0,1,1,0,0.5,0.625,1,0,0,0.8,0.2,0.111111,,0.649231,0.304266,0.740306,0.255082
0,0.963391,0,0,1,0,0.824516,0,1,3,1,0.666667,0.0160714,1,0,1,1,0,0.5,0.625,1,0,0,0.8,0.2,0.111111,,0.6,0.311794,0.79671,0.263053
0,0.963391,0,0,1,0,0.824516,0,1,3,1,0.666667,0.0160714,1,0,1,1,0,0.5,0.625,1,0,0,0.8,0.2,0.111111,,0.535385,0.336261,0.840188,0.267039
0,0.963391,0,0,1,0,0.824516,0,1,3,1,0.666667,0.0160714,1,0,1,1,0,0.5,0.625,1,0,0,0.8,0.2,0.111111,,0.584615,0.341907,0.781434,0.27501
0.886608,0,0.0466636,0.526316,0,0,0.824516,0,0.5,2,0.666667,0.333333,0.0571429,0,0,0,0,0,0.75,0.5,0.666667,0,0,0.75,0.428571,0.111111,,0.667385,0.583438,0.687662,0.469908
0.746617,0,0.186654,0.526316,0,0,0.824516,0,0.5,2,0.666667,0.333333,0.0571429,0,0,0,0,0,0.75,0.5,0.666667,0,0,0.75,0.285714,0.111111,,0.668615,0.646173,0.850411,0.644878
0.65329,0,0.279981,0.526316,0,0,0.824516,0,0.5,2,0.666667,0.333333,0.0571429,0,0,0,0,0,0.75,0.5,0.666667,0,0,0.75,0.285714,0.111111,,0.629538,0.6399,0.777908,0.550418
0.933271,0,0,0.526316,0,0,0.824516,0,0.5,1,0.333333,0.333333,0.0785714,0,0,0,1,0,0.25,0.625,0.333333,0,0,0.4,0.285714,0.111111,,0.540615,0.437892,0.52738,0.224392
0.933271,0,0,0.394737,0.25,0,0.824516,0,0.5,3,1,0.666667,0.0642857,0,0,0,1,1,0.75,0.625,0.333333,0.666667,0.5,0,0.342857,0.222222,,0.635385,0.600878,0.871445,0.584695
0.933271,0,0,0.526316,0,0,0.824516,0,0.5,2,0.666667,0.666667,0.0642857,0,0,0,0,1,0.75,0.625,0.333333,0.666667,0.5,0,0.4,0.222222,,0.732308,0.467629,0.923149,0.555201
0.933271,0,0,0,1,0,0.824516,0,1,3,1,0.666667,0.0714286,1,0,0,0,1,1,0.125,0.166667,0.666667,0.75,0.7,0.285714,0.111111,,0.139077,0.0941029,0.446533,0.0103627
0.839944,0,0.0933271,0.526316,0,0,0.824516,0,1,3,1,0.666667,0.0714286,0,1,1,1,1,1,0.125,0.166667,0.666667,0.666667,0.5,0.285714,0.111111,,0.571385,0.627353,0.874266,0.550418
0.933271,0,0,0.263158,0.5,0,0.824516,0,1,3,1,0.666667,0.0714286,0,0,0,0,1,1,0.125,0.166667,0.666667,0.666667,0.3,0.285714,0.111111,,0.573846,0.388959,0.646298,0.253487
0,0.963391,0,0.131579,0.75,0,0.824516,0,1,3,1,0.666667,0.0714286,0,0,0,0,1,1,0.125,0.166667,0.666667,0.666667,0.2,0.285714,0.111111,,0.628615,0.288582,0.659224,0.210044
0,0.770713,0.186654,0,1,0,0.824516,0,1,3,1,0.666667,0.0714286,0,1,1,1,1,1,0.125,0.166667,0.666667,0.666667,0.1,0.285714,0.111111,,0.493846,0.150565,0.420682,0.055002
0,0,0.933271,0.526316,0,0,0.549677,0.333333,0.5,3,1,0.666667,0.0535714,1,1,0,1,1,0.75,0.125,0.0555556,0.5,0.5,0,0.457143,0.0555556,,0.487077,0.770389,0.974853,0.642886
0.933271,0,0,0.526316,0,0,0.824516,0,0.5,3,1,0.666667,0.0642857,1,0,0,0,1,0.75,0.625,0.333333,0.833333,0.5,0,0.4,0.222222,,0.614462,0.595985,0.916569,0.591072
0.933271,0,0,0.263158,0.5,0,0.824516,0,0.5,1,0.333333,0.333333,0.214286,0,0,0,0,0,0.25,0.75,0.666667,0,0,0,0.2,0.333333,,0.608,0.604141,0.820212,0.529295
0.933271,0,0,0.526316,0,0,0.824516,0,0.5,1,0.333333,1,0.114286,0,0,0,0,0,0.25,0.8125,0.333333,0,0,0,0.285714,0.111111,,0.64,0.690715,0.787309,0.542049
0,0,0.933271,0.526316,0,0,0.549677,0.333333,0.5,1,0.333333,0.333333,0.0642857,0,0,0,0,1,0.75,0.125,0.111111,0.666667,0.666667,0.278,0.371429,0.111111,,0.416923,0.677541,0.763807,0.37784
0,0,0.933271,0.526316,0,0,0.549677,0.333333,0.5,1,0.333333,0.333333,0.0642857,1,0,0,1,1,0.75,0.125,0.111111,0.666667,0.666667,0.278,0.4,0.111111,,0.436,0.702635,0.779553,0.418892
0,0,0.933271,0.526316,0,0,0.549677,0.333333,0.5,1,0.333333,0.333333,0.0642857,1,0,0,1,1,0.75,0.125,0.111111,0.666667,0.666667,0.278,0.342857,0.111111,,0.479077,0.740276,0.876146,0.545636
0,0,0.933271,0.526316,0,0,0.274839,0.666667,1,2,0.666667,0.333333,0.114286,0,0,0,0,1,0.5,0.25,0.333333,0,0,0,0.285714,0.333333,,0.326462,0.721455,0.822562,0.340375
0,0,0.933271,0.526316,0,0,0.549677,0.333333,0.5,1,0.333333,0.333333,0.0642857,1,0,0,1,1,0.75,0.125,0.111111,0.666667,0.75,0.15,0.571429,0.111111,,0.471692,0.76537,0.924794,0.589079
0,0,0.933271,0.526316,0,0,0.824516,0,0.5,1,0.333333,0.333333,0.0642857,1,1,1,1,0,0.75,0.5,0.333333,0,0,0,0.857143,0.111111,,0.452923,0.759724,0.925969,0.559984
0,0,0.933271,0.526316,0,0,0.824516,0,0.5,1,0.333333,0.333333,0.0642857,1,1,1,1,0,0.75,0.5,0.333333,0,0,0,0.857143,0.111111,,0.448308,0.762233,0.927145,0.556397
0.929922,0,0.001751795,0.530624,0.004454756,0.003084421,0.831941,0.002589677,1.0083,2.99625,0.995591,0.658408,0.0412451,0,0,0,0.998613,0,0.745894,0.502928,0.220115,0.006395623,0.006121949,0.114529,0.287769,0.0203117,,0.650769,0.644918,0.920094,0.479075
0.934559,0,0.005145442,0.528212,0.001875179,0.005791527,0.829918,0,1.00088,3.00013,1.0032,0.999843,0.0406578,0,0,0.00692047,0,0,0.246375,0.995929,0.33907,0.007075243,0.002867441,0,0.28604,0.173151,,0.277538,0.345044,0.716804,0.11957
0.004770967,0,0.934395,0.532718,0,0,0.54393,0.332381,0.495063,1.00184,0.32512,0.997269,0.0482456,0.0142632,0,0,0.004469661,0.003943201,0.745194,0.349301,0.272591,0,0,0,1.00177,0.0629396,,0.361846,0.608532,0.681551,0.263053
0,0.004137402,0.936653,0.52659,0,0.009598273,0.545696,0.330035,0.502037,1.00921,0.339828,0.999517,0.0598033,0,0.99052,0,0.993515,0,0.753431,0.358783,0.272221,0.006103305,0,0.005099187,1.00367,0.0550016,,0.430154,0.734003,0.869565,0.478278
0.13628,0.803133,0.003532593,0.528729,0,0,0.695709,0.157337,0.49722,1.00767,0.32897,0.341976,0.0593111,0.001709501,0.004387556,0.005652563,0.009115336,1.00185,0.49842,0.624156,0.500579,0.835451,0.503326,0,0.302766,0.669297,,0.710154,0.671267,0.728555,0.616182
0.926256,0.00261055,0,0.528514,0,0,0.816955,0,0.99675,1.99907,0.666013,0.334152,1.00341,0.998288,0,1.00003,0,1.00166,0.753468,0.132762,0.0498164,0.667615,0.198822,0.03738953,0.384314,0.0364375,,0.650769,0.660602,0.766157,0.579115
0,0,0.941216,0,1.00355,0.003016967,0.820961,0,0.998507,3.00698,0.996616,0.666236,0.0525536,0,0.002655319,0,1.00487,0.004969164,0.743535,0.364041,0.336694,0,0.002093658,0,0.198767,0.0922013,,0.443692,0.395232,0.705053,0.219609
0.0442287,0.919692,0,0.999021,0.006626329,0.001789396,0.628517,0.0777798,0.507423,1.99587,0.661217,0.329015,0.0781245,0.996949,1.00165,0.004181612,0.997497,1.01387,1.0038,0.0312145,0.113539,0.670257,0.506311,0.202814,0.43601,0.106739,,0.759692,0.683814,0.878966,0.802312
0,0.968907,0,0.000417979,1.00413,0.004643153,0.821225,0,0.995954,3.00273,1.00524,0.669222,0.0614488,0.002138492,0.002777675,0,0.99822,1.00045,0.492426,0.118496,0.130141,0.840702,0.790427,0.0774158,0.281329,0.133524,,0.688308,0.457967,0.846063,0.46951
0.835332,0,0.095783,0.523531,0,0,0.818827,0.003618557,1.00179,1.99926,0.674323,0.672907,0.025202,0,0.998194,0.995353,1.0036,0.995832,0.759576,0.12985,0.113869,0.669162,0.48967,0.101108,0.433873,0.106512,,0.701538,0.652447,0.773208,0.621762
0.000865461,0.001439889,0.932593,0,1.01048,0.007097191,0.003516282,1.00549,0.500972,0.998691,0.331297,0.332755,0.114253,0,0.998259,0.992373,4.28E-05,0.006925649,0.498516,0.264904,0.331564,0,0.00421972,0,0.293189,0.112733,,0.28,0.263488,0.6698,0.0864886
0.132517,0.674441,0.138905,0.530455,0.003130335,0.006490718,0.676075,0.174639,0.494811,1.00068,0.336846,0.329586,0.108728,0.003986586,0.000553778,0,0.006208076,1.00945,0.753638,0.128695,0.109843,0.998996,0.335467,0.0982853,0.29213,0.667688,,0.596923,0.68256,0.810811,0.581905
0.935414,0.001059016,0.003549658,0.39745,0.252626,1.62E-05,0.492744,0.395483,1.01166,3.00342,1.00122,0.668215,0.0698936,0.002243912,0.001193933,0.000802513,1.0055,0.998217,0.755286,0.131274,0.170356,0.668279,0.752019,0.699631,0.288799,0.0995186,,0.530769,0.570891,0.893067,0.475488
0,0.000481754,0.999852,0,0,0.99997,0.886056,0.004396911,0.493945,1.00184,0.33746,0.658742,0.09148784,0.002724224,0.004083829,0,0,0,0.754176,0.19086,0.218342,0,0.00090148,0.007904564,0.306957,0.338514,,0.0661538,0.53325,0.705053,0.0434436
0.0162798,0.002271987,0.93169,0.526084,0,0.00528325,0.832628,0.01028544,0.500381,1.00235,0.338081,0.344222,0.07133277,0,0.999318,1.00063,0.000499194,0.996212,0.757917,0.102256,0.114239,0.577706,0.586191,0.003901841,0.288332,0.165918,,0.492923,0.558344,0.664982,0.321642
0.002697995,0,0.937231,0.528022,0.002186484,0.002214698,0.818156,0.002582941,0.500526,1.00557,0.342101,1.00177,0.0412276,0.000789206,0,0.006012284,0.005434598,0,0.497406,0.252611,0.329669,0.007800226,0,0,0.324115,0.102968,,0.414154,0.44542,0.540541,0.177361
0,0,0.944627,0.533987,0,0.002073129,0,0.995655,0.503185,1.00932,0.333737,0.337678,0.110162,0,0.0157371,0.000192467,0.001609779,0,0.250614,0.318602,0.673802,0,0.002953396,0.010707,0.209665,0.333923,,0.188,0.759097,0.869565,0.218015
0,0,0.933432,0.5253,0.003123679,0.002983207,0.834665,0,0.494803,0.997515,0.327096,0.995985,0.707356,0.0106082,0,0,0,0,0.246775,0.245431,0.342772,0.002680402,0,0.01065751,0.198551,0.333995,,0.214154,0.790464,0.6698,0.199283
0.003610751,0.002844191,0.936415,0.510482,0.000870348,0.0655221,0.003605613,1.00215,0.500371,0.995625,0.338453,1.00294,0.0582655,0.001140177,0.003100799,0.010194,0.993822,1.00239,0.242513,0.259707,0.334695,0.336868,0.486381,0.00275105,0.718756,0.0547686,,0.148923,0.951066,0.895417,0.222798
0.006074937,0.002244949,0.937668,0.508849,0.003102465,0.0506505,0,1.00013,0.49886,0.995662,0.334329,1.00007,0.0653321,0,0,0.00206546,0.998764,1.00342,0.255559,0.254139,0.331647,0.335075,0.497576,0.00489452,0.718,0.05362625,,0.214462,0.974906,0.925969,0.340375
0.004636666,0,0.938672,0.513146,0,0.0383031,0.0017326,0.997606,0.500532,1.00554,0.335969,0.997876,0.0690926,0,0,0,1.00088,0.998893,0.246242,0.248901,0.329231,0.338102,0.492605,0,0.711477,0.0622567,,0.216615,0.909661,0.907168,0.313671
0.002152403,0,0.931279,0.513811,0,0.0348277,0.546403,0.334444,0.501124,0.996662,0.332026,0.336216,0.11508,0,0.00743973,0,1.00049,0.999612,0.749646,0.120725,0.105524,0.659844,0.503884,0,0.288032,0.0516051,,0.470769,0.654329,0.821387,0.438422
0,0,0.937379,0.524971,0,0,0.00804212,0.995625,0.499699,1.00609,0.333244,0.998269,0.0641565,0.00047536,0,0,0.000313143,0.004224844,0.744106,0.255418,0.335325,0,0,0,0.719589,0.113518,,0.225846,0.784191,0.740306,0.231965
0,0.000450332,0.931676,0.515093,0,0.0360546,0.54966,0.345459,0.497312,1.00502,0.334191,0.336492,0.108946,0,0,0.005442352,0.99678,1.00421,0.751861,0.121399,0.112075,0.497763,0.498115,0.002332621,0.800475,0.121372,,0.450462,0.757842,0.875441,0.525309
0.892186,0.008010794,0.0423126,0.519318,0,0.005093465,0.823502,9.69E-05,0.508512,0.990449,0.333717,0.666029,0.0855383,0,0.008722311,0,0.001900858,0,0.742298,0.495804,0.332064,0,0,0.497436,0.435729,0.0578574,,0.655385,0.627353,0.809636,0.585891
0,0.95935,0.002844389,0.51756,0,0,0.819031,0,0.493495,1.00257,0.320013,0.662302,0.0921091,0.000465233,0,0.000519339,0,0.004766516,0.742144,0.503949,0.324716,0,0.001184186,0.50357,0.434674,0.0552697,,0.704615,0.65872,0.822562,0.669589
0.003588114,0.961764,0,0.523316,0.003079034,0.002483917,0.830448,0.002051066,0.503738,0.992298,0.323148,0.672851,0.090554,0,0.005073919,0,0.002149369,0.00098907,0.751256,0.497688,0.339775,0,0,0.498542,0.433596,0.0533375,,0.689231,0.6399,0.820212,0.633719
0,0.962862,0.000839437,0.524866,0.006107719,0.004332016,0.830074,0,0.499001,0.996325,0.336595,0.667567,0.0862939,0.00655047,0,1.51E-05,0,0,0.753054,0.504724,0.337522,0,0,0.499041,0.421946,0.05544814,,0.701538,0.652447,0.842538,0.681546
0.00044338,0.965776,0,0.527129,0,0,0.821018,0.00153404,0.500427,1.00211,0.332243,0.673393,0.0884132,0,0.006985352,0,0,0,0.742269,0.504429,0.331398,0,0.0057593,0.508955,0.431222,0.06464132,,0.692308,0.664994,0.858989,0.697489
0.005352111,0.961408,0,0.525677,0.004109847,0.006918635,0.818739,0.000128526,0.503962,0.994082,0.330363,0.335175,0.112494,0,0.004389665,0,0,0.997329,0.751281,0.129066,0.115242,1.00133,0.245944,0.0933915,0.428787,0.107592,,0.658462,0.507528,0.695652,0.414508
0.0696234,0.599628,0.0448268,0.529809,0.007952096,0,0.690544,0.168324,0.500111,0.985493,0.323148,0.323879,0.116027,0,1.00822,1.00325,0,1.00122,0.744135,0.126205,0.110388,1.00021,0.326733,0.0209518,0.290596,0.663617,,0.698462,0.695734,0.869565,0.741331
0.0794364,0.523715,0.137671,0.524119,0,0.012219,0.67225,0.160908,0.499061,1.01123,0.33076,0.33002,0.109497,0,1.00891,1.00387,0.001386025,0.996899,0.749082,0.126436,0.105056,0.999136,0.335075,0.008409642,0.28266,0.671002,,0.615385,0.711418,0.752056,0.577919
0.0456651,0.716973,0.136516,0.52071,0,0,0.658317,0.198725,0.493004,1.00147,0.339111,0.334014,0.117927,0,1.00192,1.00637,0.002046937,1.00705,0.7506145,0.118999,0.116778,0.990181,0.333563,0.001413098,0.289452,0.671946,,0.649231,0.664994,0.881316,0.669589
0.0638792,0.723767,0.246731,0.521268,0.003432668,0,0.662859,0.180839,0.498996,1.01175,0.331095,0.328386,0.113716,0,0.994181,1.00004,0,1.00422,0.758517,0.122365,0.112552,0.993484,0.3249,0.0150277,0.290525,0.67055,,0.636923,0.655583,0.775558,0.569948
0.0181774,0.814177,0.0992363,0.530731,0,0,0.668696,0.198123,0.50412,1.00327,0.328352,0.332341,0.111557,0,0.998321,1.00039,0,1.0068,0.758003,0.120753,0.114117,0.997131,0.335789,0.0148606,0.277594,0.670339,,0.646154,0.671895,0.846063,0.645676
0.0686468,0.817535,0.157704,0.528797,0.006822381,0,0.664662,0.16676,0.487668,0.995372,0.339719,0.334148,0.114765,0.005798232,0.997087,1.0024,0.0115956,1.00497,0.75125,0.121434,0.110386,1.01022,0.32883,0.0102712,0.278565,0.667029,,0.627692,0.665621,0.857814,0.629733
0.124822,0.731699,0.0808797,0.526325,0,0,0.703017,0.147026,0.997597,1.99935,0.665554,0.659813,0.0677217,0.00820391,0.998592,1.00031,0,1.00067,0.504298,0.130583,0.119585,0.832674,0.495003,0.210352,0.291006,0.665869,,0.686769,0.687578,0.716216,0.603826
0.0273737,0.0939717,0.028584,0.329683,0.59788,0.001721976,0.995856,0.000440864,1.00026,3.00232,0.997208,0.66733,0.0815038,0.006546243,1.00253,1.0034,0.998316,0.994566,0.497537,0.630702,0.109817,0,0.007059131,0,0.285698,0.08561372,,1,0.489335,0.843713,0.725389
0.165289,0.70167,0.0970466,0.257609,0.501064,0.005111532,0.824043,0,1.00926,3.00114,1.0015,0.669286,0.0750174,0.001527154,1.00015,1.00578,0.996675,1.00486,0.500522,0.628519,0.112427,0,0.001332009,0,0.288533,0.0833504,,0.815385,0.451694,0.721504,0.494221
0.002403177,0.004950292,0.933261,0.52314,0,0,0.54651,0.326024,0.501142,0.999879,0.331706,0.340288,0.0995308,0,0.000725864,0.002356927,0.004370007,0.004223735,0.255037,0.189062,0.439281,0.001484436,0.0117447,0,0.790574,0.106075,,0.295385,0.76537,0.869565,0.342766
0,5.21E-05,0.926625,0.532705,0.010424,0.006723142,0.546956,0.3351354,0.504489,0.997867,0.332412,0.333165,0.105601,0,0.004917248,0,4.73E-05,0,0.248617,0.181951,0.442825,0,0.00305786,0,0.798282,0.106295,,0.332615,0.759097,0.857814,0.378637
0,0.002358089,0.926346,0.524754,0.001038273,0,0.542721,0.333934,0.504641,1.00202,0.333323,0.333181,0.105834,0,0.006396059,0.001197911,0,0.003973422,0.251577,0.182722,0.442219,0.000621296,0.000867922,0,0.797312,0.107859,,0.286769,0.740276,0.834313,0.314866
0,0,0.938992,0.528182,0,0,0.553592,0.336331,0.504612,1.00406,0.336282,0.321667,0.107201,0.00142424,0,0.002570502,1.46E-05,0,0.249028,0.185903,0.447928,0,0.000892984,0,0.80182,0.106202,,0.333846,0.752823,0.822562,0.362694
0.929799,0,0.002545527,0.528075,0,0.00655352,0.831479,0.007565533,0.498019,1.00511,0.336827,0.32535,0.0567084,0,0.000731612,0.008966455,0,1.00157,0.250667,0.12037,0.110118,0.498448,0.239146,0.002743837,0.277362,0.111201,,0.450462,0.538269,0.808461,0.34436
0.925726,0,0.008457724,0.528184,0.001804048,0.007569055,0.813152,0,0.504291,0.99765,0.331571,0.334314,0.0491137,0,0,0.008615601,0,1.00242,0.251521,0.12478,0.112032,0.499551,0.254875,0.00352003,0.28374,0.102548,,0.494769,0.494354,0.692127,0.29733
0.932808,0,0.005350943,0.533804,0.007694609,0,0.825641,0.000736085,0.501928,0.998783,0.332049,0.336633,0.0541178,1.00426,0.001712213,0.001704088,1.00559,1.00338,0.252694,0.118813,0.11354,0.501705,0.252415,0,0.290288,0.103223,,0.684923,0.612296,0.804935,0.593065
0.936645,0.002435648,0.005114747,0.531201,0,0.00164395,0.822299,0.007059006,0.498746,0.999393,0.333153,0.332321,0.0509274,0.992784,0,0,1.0054,0.99809,0.251327,0.122297,0.114625,0.497795,0.250759,0.002287528,0.2851,0.106887,,0.680308,0.628607,0.884841,0.665205
0.121792,1.00665,0.0536611,0.679638,0,0,0.900968,0.165673,0.499738,1.00661,0.336742,0.330056,0.721605,0.002626595,0,0,0,0.996436,0.748088,0.246403,0.10965,0.988971,0.501482,0.206076,0.280519,0.667153,,0.799385,0.626098,0.384606,0.250299
0,0.000879349,0.936552,0.529924,0.001999365,0.0107118,0.54832,0.33047,0.503674,1.00397,0.327682,0.333281,0.0723571,0.003662523,0.998031,0,0.998883,0.99733,0.748618,0.121993,0.11221,0.498926,0.505177,1.83E-05,0.802828,0.111558,,0.5,0.828105,0.940423,0.683938
0.927392,0.006537903,0,0.521684,0.006727279,0.002896612,0.330957,0.497778,0.503498,1.00392,0.332014,0.337984,0.140237,0.005421615,0,0,0,0.005867599,0.253887,0.738996,0.0515849,0,0.000868529,0,0.202098,0.33903,,0.195385,0.523212,0.615746,0.111598
0.562942,0.385893,0,0.527956,0.006276396,0.002377679,0.81275,0,0.506203,1.00223,0.329857,0.33799,0.206706,0.001737171,0,0.001019109,0,1.00513,0.24048,0.822292,0.109162,0.004157973,0.497353,0,0.215466,0.109713,,0.558462,0.644291,0.840188,0.534077
0.00143396,0.002088385,0.944094,0.007093668,0.998984,0.008298581,0.275734,0.666993,0.503958,1.0001,0.333755,0.333489,0.141865,0.003642875,1.00574,0.00434196,0.99744,0.002014688,0.503861,0.258759,0.45851,0.0103577,0,0.002385543,0.28046,0.115446,,0.356,0.195107,0.505288,0.0621762
0.003091244,0,0.9364,0.530699,0,0,0.542776,0.332141,0.500048,0.995051,0.337891,0.339714,0.0505994,0,0,0,0.004919377,0,0.251755,0.189322,0.447193,0,0,0.008417774,0.803169,0.0286826,,0.323077,0.76537,0.869565,0.378637
0,0,0.934161,0.52717,0.009921513,0.003295303,0.551403,0.336194,0.500794,0.994809,0.32932,0.329798,0.0440454,0,0,0.003308391,0,0,0.24679,0.191988,0.434465,0,0,0.008999622,0.800622,0.0177032,,0.313846,0.727729,0.857814,0.342766
0.001438666,0,0.934756,0.002165644,0.998206,0,0,0.988282,0.504465,1.00207,0.334333,0.334891,0.0553492,0.00172032,0,0.004895886,0.003644091,0,0.246403,0.187942,0.453178,0.0125288,0.000441299,0.003683957,0.797895,0.025516,,0.310769,0.771644,0.857814,0.362694
0.003461062,0,0.94118,0,1.00537,0.001970191,0,1.01114,0.501609,1.00889,0.329792,0.339295,0.0518899,0.001313972,0.000532714,0.00744112,0,0,0.243488,0.186501,0.443736,0.004914573,0.002710736,0,0.809521,0.012829,,0.369231,0.771644,0.857814,0.426465
0,0,0.92988,0.519632,0.005613116,0,0.547134,0.331888,0.492581,1.00004,0.32889,0.332752,0.0437657,0,0.002964185,0.001239464,0,0,0.258725,0.185674,0.4403464,0,0.006298036,0,0.799658,0.0294209,,0.344615,0.734003,0.775558,0.346752
0,0.003898093,0.933944,0.001113261,1.00267,0.001689265,0.006595548,1.00392,0.497714,0.997137,0.327494,0.337806,0.0535191,0,0,0.003030579,0,0,0.255371,0.184855,0.441749,0,0,0.00137559,0.795322,0.0238363,,0.356923,0.752823,0.79906,0.382623
0,0,0.932267,0.476011,0,0.133976,0.494691,0.405585,0.502624,1.99395,0.669964,0.335234,0.0714133,0,0.001769532,0,1.00491,0.001141077,0.748587,0.379781,0.277699,0.00475938,0,0.502604,0.452603,0.121169,,0.350462,0.696361,0.696827,0.30291
0,0.001187095,0.942736,0.523266,0,0,0.545487,0.334739,0.498482,2.0076,0.667215,0.669313,0.0835082,0.0107171,0.002163037,0,0,0,0.74185,0.626252,0.329554,0,0.006214355,0,0.804868,0.0710442,,0.367077,0.754705,0.810811,0.39458
0,8.66E-05,0.9307,0.529327,0,0.002554316,0.550505,0.338076,0.498235,2.00715,0.661719,0.670394,0.0858663,0,0.001865188,0,0,0,0.753551,0.627796,0.333585,0.004259568,0.000457106,0,0.796013,0.0680123,,0.371077,0.728984,0.846063,0.402152
0,0.001165395,0.93601,0.521833,0.001345416,0.003208205,0.549573,0.327207,0.49494,2.00179,0.666941,0.661687,0.0861499,0,0,0,0.997993,0.002245697,0.757624,0.633621,0.331087,0.006417687,0.0142031,0.002722937,0.801226,0.0633029,,0.370462,0.804893,0.92832,0.48625
0.001718764,0,0.927653,0.52562,0.001092143,0,0.542386,0.327692,0.503347,2.00116,0.66776,0.667739,0.0854982,0.000769502,0,0.00213647,0.986987,0,0.746449,0.621303,0.320469,0.0117357,0.001047644,0,0.79947,0.06407593,,0.367077,0.793601,0.822562,0.420885
0.001131854,0,0.922766,0.528501,0.003682854,0.001990488,0.541758,0.327982,0.49188,0.99599,0.325335,0.670692,0.0878919,0.004667496,0,0,0,0.00313893,0.751307,0.624516,0.327478,0,0.00040424,0.007940059,0.805657,0.0587727,,0.404923,0.782936,0.869565,0.484257
0.004548538,0.007546372,0.933585,0.523341,0.003451511,0,0.545977,0.338157,0.492606,0.998689,0.331985,0.6658,0.08008514,0,0,0,0,0,0.749249,0.630022,0.330704,0,0.0103357,0,0.795972,0.0659632,,0.402462,0.769134,0.869565,0.473097
0.00102596,0.001916434,0.93189,0.524434,0.002186911,0,0.545801,0.336566,0.498069,1.0002,0.327434,0.6706752,0.08704105,0.004220697,0.008223556,0,0.008666042,0,0.757476,0.631996,0.330378,0,0.00197828,0.005233791,0.802481,0.06404211,,0.400923,0.769762,0.846063,0.458749
0.00176926,0.005492482,0.927054,0.52024,0.00601102,0,0.546435,0.331971,0.502312,0.997337,0.33598,0.672248,0.0938245,0,0,0,0.003434237,0,0.749597,0.622649,0.324967,0.000678401,0,0,0.811509,0.0628054,,0.385231,0.766625,0.857814,0.442009
0,0.004165604,0.936952,0.526516,0,0.003162263,0.553752,0.331758,0.495615,0.998076,0.339368,0.664429,0.0774319,0,0,0,0,0.000536224,0.756159,0.618176,0.326488,0.003672054,0.006512025,0.002598833,0.797207,0.05881226,,0.384615,0.743413,0.846063,0.426465
0.005192421,0,0.924396,0.520407,0.001235121,0.000842963,0.549526,0.341332,0.493316,1.00382,0.327804,0.670095,0.0821226,0,0,0.004041072,0,0,0.754111,0.62958,0.336292,0.002794946,0,0.004093537,0.802045,0.054283,,0.363077,0.779172,0.810811,0.403348
0,0.001154596,0.935849,0.529263,0,0,0.546568,0.332391,0.5041241,0.999479,0.32744,0.665863,0.0832085,0,0.00255068,0.009200752,0.002899048,0,0.749327,0.621574,0.328743,0,0,0.008481131,0.80431,0.0722444,,0.363077,0.79611,0.740306,0.373456
0,0,0.932434,0,0.997632,0,0.821776,0.001072373,0.502424,1.00164,0.329349,0.334561,0.0901708,0,1.00467,0.9986,0.991098,0,0.745425,0.309841,0.66405,0.0126262,0,0.003514267,0.288328,0.223584,,0.740308,0.183061,0.399765,0.0952571
0.00329138,0.96623,0,0,1.00741,0.00191564,0.826267,0,1.00007,2.99436,1.01031,0.661738,0.0222982,1.00175,0.004554264,0.997647,1.00518,0,0.493607,0.623692,1.00364,0.006211189,0,0.803272,0.199633,0.113544,,0.624615,0.293601,0.769683,0.24711
0,0.959028,0,0,1.00833,0,0.822491,0,1.00571,3.00153,0.993576,0.670927,0.0217977,0.995932,0.001052261,1.0014,0.995531,0.000600858,0.50546,0.628849,0.993415,0.000779413,0,0.805989,0.206407,0.100257,,0.649231,0.304266,0.740306,0.255082
0,0.960012,0,0.00285906,0.997763,0,0.826462,0,1.01055,3.00295,0.997727,0.66858,0.0196485,0.993132,0.006797084,1.00367,1.00787,0,0.498428,0.623669,0.996714,0,0,0.797699,0.200503,0.109901,,0.6,0.311794,0.79671,0.263053
0,0.965393,0.00150006,0.009635641,0.996734,0,0.829355,0,1.00306,2.99767,0.997151,0.670149,0.0157649,0.995188,0,1.00035,1.00234,0,0.502452,0.617457,0.998828,0,0,0.796238,0.200037,0.105087,,0.535385,0.336261,0.840188,0.267039
0.00442776,0.95706,0,0,1.0015,0,0.815924,0,1.00288,2.98959,1.00314,0.667101,0.0175664,1.00343,0.000860119,1.00021,1.00186,0.000242512,0.497313,0.624824,0.9988,0.003935432,0,0.794355,0.213343,0.115575,,0.584615,0.341907,0.781434,0.27501
0.879918,0.001599121,0.04364022,0.532183,0.00497741,0,0.827918,0.004123284,0.502785,1.99367,0.662714,0.323012,0.0553543,0.00374409,0,0.001626103,0.002706412,0,0.757489,0.492407,0.66946,0.000722153,0.003475411,0.762747,0.428838,0.10605,,0.667385,0.583438,0.687662,0.469908
0.744363,0,0.18318,0.526817,0.004819932,0.00052612,0.822313,0.000282643,0.499532,2.00554,0.66443,0.331358,0.0537849,0.006834522,0.003992487,0.003305479,0.00232002,0,0.748146,0.500095,0.661504,0,0.008675598,0.753959,0.2728954,0.11102,,0.668615,0.646173,0.850411,0.644878
0.651394,0.001796744,0.2805,0.523878,0,0,0.830409,0.000522669,0.499074,2.00378,0.661861,0.33226,0.05511021,0.002723099,0.006266511,0,0.003150667,0,0.750226,0.51043,0.672603,0,0,0.752869,0.273825,0.1147,,0.629538,0.6399,0.777908,0.550418
0.94102,0,0.003139323,0.520492,0,0.001148063,0.826765,0,0.493277,0.994446,0.344275,0.329576,0.0792662,0,0,0.0076442,0.992046,0.005420424,0.249416,0.624351,0.332825,0.005109831,0,0.396701,0.281053,0.106802,,0.540615,0.437892,0.52738,0.224392
0.943932,0.009052697,0,0.389538,0.247566,0,0.834228,0,0.506026,2.99512,0.991477,0.664264,0.0699286,0.00268115,0,0,1.00782,0.999415,0.752006,0.625901,0.326312,0.671744,0.503128,0.002482191,0.340487,0.2211,,0.635385,0.600878,0.871445,0.584695
0.933163,0,0,0.523894,0.002699297,0.003304289,0.826604,0.001068606,0.502178,1.99802,0.665552,0.665856,0.0605112,0,0,0,0.003635405,1.00022,0.751729,0.618518,0.334713,0.668446,0.494861,0.001924813,0.403505,0.220278,,0.732308,0.467629,0.923149,0.555201
0.927933,0,0,0,0.999753,0,0.822125,0,0.998605,2.99551,0.989606,0.668222,0.07267149,0.992484,0,0.007448002,0,0.997459,0.992464,0.121131,0.1644,0.67203,0.751506,0.701187,0.290849,0.105515,,0.139077,0.0941029,0.446533,0.0103627
0.845107,0.01087874,0.102564,0.528113,0.006437658,0,0.824121,0,0.999435,2.99833,0.995279,0.664455,0.06837317,0,1.00566,0.995594,0.998969,0.998239,0.997341,0.128044,0.167556,0.669764,0.66407,0.496877,0.280459,0.101299,,0.571385,0.627353,0.874266,0.550418
0.941111,0.005679627,0.000834574,0.255298,0.508181,0.00804839,0.829631,0,0.994579,3.00205,0.993833,0.668107,0.0701539,0.001741422,0.003526448,0.000877088,0.001742947,0.99755,1.00288,0.125204,0.159611,0.658192,0.668987,0.304939,0.294311,0.113789,,0.573846,0.388959,0.646298,0.253487
0,0.96695,0.001674649,0.130862,0.749104,0.001150953,0.831668,0.004787329,0.993999,2.99977,1.01281,0.660575,0.0721124,0.002963694,0,0.004497696,0,1.00184,1.01775,0.116626,0.169822,0.67574,0.663124,0.199053,0.274826,0.103018,,0.628615,0.288582,0.659224,0.210044
0.002550564,0.779269,0.192765,0,0.996893,0,0.820327,0,0.99771,3.01171,1.0019,0.662071,0.0803823,0.003842967,0.997774,0.989166,0.994488,0.993164,1.00844,0.132788,0.158568,0.66397,0.667485,0.103455,0.280502,0.108611,,0.493846,0.150565,0.420682,0.055002
0,0.005815517,0.938459,0.530032,0,0.00614461,0.55495,0.330689,0.501768,2.99406,0.999683,0.659957,0.0578272,1.00415,1.00041,0.002001566,0.995496,1.00717,0.748938,0.126081,0.06637207,0.493166,0.505637,0,0.453495,0.0571078,,0.487077,0.770389,0.974853,0.642886
0.931759,0.004373192,0,0.532936,0,0.002837146,0.81962,0.002221094,0.50609,2.99497,0.991131,0.665134,0.0642125,1.00372,0.004483494,0,0,1.00195,0.752576,0.612826,0.330979,0.835093,0.503723,0,0.399512,0.235813,,0.614462,0.595985,0.916569,0.591072
0.940477,0.007317682,0,0.262606,0.496165,0.000382765,0.824227,9.86E-05,0.507995,1.00409,0.335145,0.334553,0.216967,0,0,0,0,0.005619859,0.249946,0.755134,0.666164,0.000647344,0,0.00346764,0.200467,0.3272,,0.608,0.604141,0.820212,0.529295
0.948198,0,0.00818676,0.536748,0.006982634,0,0.826708,0,0.495221,1.00262,0.338884,0.998838,0.113516,0,0,0.003467314,9.40E-05,0,0.250223,0.806595,0.336264,0,0,0,0.292615,0.114205,,0.64,0.690715,0.787309,0.542049
0.001671445,0,0.929449,0.519648,0,0.003438396,0.547559,0.343839,0.499769,0.999881,0.337947,0.329595,0.058867,0.000562345,0,0.003031465,0,1.00314,0.75496,0.121498,0.111247,0.664098,0.672037,0.280265,0.371808,0.118485,,0.416923,0.677541,0.763807,0.37784
0,0,0.934264,0.525195,0.000231149,0.004806217,0.54567,0.339619,0.504557,0.999198,0.339044,0.332549,0.0628547,0.99794,0,0.005855684,0.992348,0.999291,0.751091,0.123746,0.104133,0.659107,0.66094,0.2756,0.394992,0.0949114,,0.436,0.702635,0.779553,0.418892
0,0.000337075,0.936278,0.518303,0,0,0.547635,0.340081,0.494751,0.991091,0.331619,0.327354,0.0616377,1.00266,0,0.007689538,0.994552,1.00108,0.746758,0.13016,0.114472,0.668763,0.66112,0.28043,0.344298,0.117042,,0.479077,0.740276,0.876146,0.545636
0,0,0.930037,0.518714,0.003684229,0,0.279311,0.657305,1.00861,1.99737,0.667572,0.333601,0.106351,0,0,0,0,0.998575,0.5033,0.253064,0.338494,0,0.005500617,0,0.283017,0.323908,,0.326462,0.721455,0.822562,0.340375
0.008633518,0,0.935787,0.520394,0,0,0.547807,0.341074,0.507295,1.01099,0.339707,0.330397,0.0567951,0.999427,0,0.001083086,1.01081,1.00038,0.7540635,0.121692,0.112931,0.666467,0.753067,0.141455,0.571247,0.104811,,0.471692,0.76537,0.924794,0.589079
0,0.009537908,0.936683,0.522688,0.001933364,0,0.829699,0,0.498382,0.999437,0.32851,0.336736,0.0673897,0.991913,1.00137,0.995608,1.00412,0,0.745612,0.503775,0.327027,0.001692844,0.007329075,0,0.860085,0.105552,,0.452923,0.759724,0.925969,0.559984
0,0.007567955,0.938522,0.529462,0,0,0.823749,0.002342084,0.507995,0.997263,0.332225,0.3271238,0.0605417,1.0085,1.00267,1.00103,1.00628,0.006337981,0.752718,0.49866,0.339717,0.001986977,0.001249951,0,0.860315,0.11144,,0.448308,0.762233,0.927145,0.556397
0.234216,0.716564,0.001729528,0.001826429,0.854234,0.216686,0.825108,0.003491802,1.00583,3.00325,1.00084,0.337723,0.0787952,0,1.00397,0.002757732,0.000641743,0,0.25117,0.624919,0.556817,0,0.000300769,0.289117,0.197762,0.111748,,0.364308,0.0941029,0.540541,0.0318852