File: 3.XGboost/data.csv
MA,FA,Cs,Pb,Sn,Other,I,Br,Gap,Po,ETL,HTL,Ne,Add_O,Add_I,Add_H,Step,Solvent,Coated1_v,Coated1_t,Coated2_v,Coated2_t,Antisolvent,Anneal_T,Anneal_t,Jsc,Voc,FF,PCE
1,0,0,1,0,0,1,0,0.61597,1,1,1,0.666667,0,0,0,0.5,0.75,0.5,0.222222,0,0,1,0.285714,0.0222222,21.15,1.028,0.783,12.02
1,0,0,1,0,0,1,0,0.6121673,0,0.666667,0.333333,0.333333,0,0,0,0.5,1,0.5,0.333333,0,0,1,0.285714,0.111111,21.35,0.94,0.796,16.05
1,0,0,1,0,0,1,0,0.6121673,0,0.666667,0.333333,0.333333,0,0,0,0.5,1,0.5,0.333333,0,0,1,0.285714,0.111111,18.96,1.01,0.678,13.94
0,1,0,1,0,0,1,0,0.570342,0,0.333333,0.333333,0.666667,0,0,0,0.5,1,0.375,0.222222,0,0,1,0.357143,0.222222,25.87,1.107,0.82,23.48
0,0,1,1,0,0,0.666667,0.333333,0.722433,0,0.333333,0.333333,1,0,0,0,0.5,0.75,0.35,0.277778,0,0,0,1,0.0555556,12.55,0.98,0.69,8.5
0,0,1,1,0,0,0.666667,0.333333,0.722433,0,0.333333,0.333333,1,0,1,0,0.5,0.75,0.35,0.277778,0,0,0,0.428571,0.0555556,13.34,1.05,0.62,8.7
0,0,1,1,0,0,0.666667,0.333333,0.722433,0,0.333333,0.333333,1,0,1,0,0.5,0.75,0.35,0.277778,0,0,0,1,0.0555556,13.98,1.17,0.74,12
1,0,0,0,1,0,0.666667,0.333333,0.593156,0,0.333333,0.333333,0.333333,0,0,0,0.5,0.25,0.5,0.5,0,0,0,0.357143,0.333333,14.38,0.77,0.5,5.48
1,0,0,0,1,0,0,1,0.81749,0,0.333333,0.333333,0.333333,0,0,0,0.5,0.25,0.5,0.5,0,0,0,0.357143,0.333333,8.26,0.82,0.59,4.27
0,0,1,1,0,0,0,1,0.882129,0,0.333333,0,1,0,0,0,0.5,0.25,0.25,0.111111,0,0,0,0.714286,0.0555556,7.48,1.19,0.688,6.12
0.15,0.85,0,1,0,0,0.85,0.15,0.551331,0,0.333333,0.333333,0.333333,0,0,0,1,0.5,0.625,0.5,0.833333,0.5,0,0.285714,0.666667,23.08,1.07,0.62,15.46
0,1,0,0,1,0,1,0,0.51711,1,1,0.666667,1,1,1,1,0.5,0.75,1,0.666667,0,0,1,0.228571,0.111111,22.14,0.64,0.6023,8.53
0,1,0,0,1,0,1,0,0.528517,1,1,0.666667,1,1,1,1,0.5,0.75,1,0.666667,0,0,1,0.228571,0.111111,24.81,0.76,0.6959,13.12
0,1,0,0,1,0,1,0,0.543726,1,1,0.666667,1,1,1,1,0.5,0.75,1,0.666667,0,0,1,0.228571,0.111111,25.15,0.82,0.7169,14.79
0,1,0,0,1,0,1,0,0.555133,1,1,0.666667,1,1,1,1,0.5,0.75,1,0.666667,0,0,1,0.228571,0.111111,21.89,0.84,0.7886,14.5
0.952,0.048,0,1,0,0,0.968,0.032,0.61597,1,0.666667,0.333333,0.333333,1,0,1,1,0.75,0.125,0.0555556,0.666667,0.2,1,0.385714,0.0333333,24.07,1.131,0.768,20.93
1,0,0,1,0,0,1,0,0.6121673,1,0.666667,0.333333,0.333333,1,0,1,1,0.75,0.125,0.0555556,0.666667,0.2,1,0.385714,0.0333333,21.15,1.053,0.652,14.53
0.928,0.072,0,1,0,0,0.952,0.048,0.619772,1,0.666667,0.333333,0.333333,1,0,1,1,0.75,0.125,0.0555556,0.666667,0.2,1,0.385714,0.0333333,23.75,1.082,0.735,18.89
0,0,1,0,1,0,1,0,0.494297,1,1,0.666667,0.666667,1,1,0,0.5,0.75,0.375,0.333333,0,0,0,0.2,0.0888889,24.94,0.75,0.74,13.68
0,0,1,0,1,0,0.333333,0.666667,0.619772,0,0.333333,0,1,0,1,0,0.5,0.75,0.375,0.222222,0,0,0,0.714286,0.0444444,16.7,0.33,0.53,3
0.15,0.85,0,1,0,0,0.85,0.15,0.608745,0,0.333333,0.333333,0.333333,1,0,0,0.5,0.75,0.75,0.333333,0,0,1,0.285714,0.666667,22.89,1.123,0.756,19.43
0,0,1,1,0,0,0,1,0.882129,0,0.333333,0,1,1,0,0,1,0.25,0.25,0.333333,0.333333,0.166667,1,0.714286,0.0555556,7.23,1.21,0.719,6.27
0.05,0.95,0,1,0,0,0.95,0.05,0.592395,0,0.666667,0.333333,0.333333,1,1,0,1,1,0.0375,0.111111,0.666667,0.5,1,0.428571,0.111111,24.66,1.08,0.73,19.44
0,1,0,1,0,0,1,0,0.587452,0,0.666667,0.333333,0.333333,1,1,0,1,1,0.0375,0.111111,0.666667,0.5,1,0.428571,0.111111,23.89,1.03,0.756,18.65
0,1,0,0,1,0,1,0,0.524715,1,1,0.666667,1,1,0,1,0.5,0.75,0.5,0.666667,0,0,0,0.185714,0.222222,24.1,0.525,0.71,9
0,1,0,1,0,0,1,0,0.585551,1,0.666667,0.333333,0.333333,1,0,1,0.5,0.25,0.5,0.333333,0,0,0,0.428571,0.111111,24.9,1.13,0.75,21.18
0,1,0,1,0,0,1,0,0.581749,1,0.666667,0.333333,0.333333,1,0,1,0.5,0.25,0.5,0.111111,0,0,0,0.428571,0.222222,24.7,1.029,0.756,19.27
0,1,0,0,1,0,1,0,0.585551,1,1,0.666667,0.666667,0,0,0,1,0.5,0.125,0.133333,0.833333,0.8,1,0.285714,0.133333,22.1,0.53,0.677,7.932
0.1,0.9,0,1,0,0,1,0,0.588213,1,0.666667,0.333333,0.666667,0,0,0,1,0.75,0.125,0.111111,0.666667,0.5,1,0.428571,0.111111,23.4,1.05,0.753,18.3
0,0.9,0.1,1,0,0,1,0,0.586312,1,0.666667,0.333333,0.666667,0,1,1,1,0.75,0.125,0.111111,0.666667,0.5,1,0.428571,0.111111,24.6,1.09,0.773,20.7
0,1,0,0,1,0,1,0,0.536122,0,0.333333,0.333333,0.333333,1,0,0,1,0.75,0.125,0.111111,0.833333,0.833333,1,0.171429,0.666667,23.7,0.28,0.55,4.8
0,1,0,0,1,0,1,0,0.536122,0,0.333333,0.333333,0.333333,1,0,0,1,0.75,0.125,0.111111,0.833333,0.833333,1,0.171429,0.666667,20.9,0.26,0.5,2.8
1,0,0,1,0,0,1,0,0.570342,1,1,0.333333,0.666667,0,0,0,0.5,0.75,0.5,0.0666667,0,0,0,0.285714,0.111111,22.35,1.1,0.729,17.92
0,1,0,0,1,0,1,0,0.536122,0,0.333333,0.333333,0.333333,0,1,1,0.5,0.25,0.25,0.444444,0,0,0,0.2,0.333333,24.45,0.238,0.36,2.1
1,0,0,0.95,0.05,0,1,0,0.60076,0,0.333333,0.333333,0.666667,1,0,0,1,1,0.125,0.222222,0.666667,0.666667,0,0.285714,0.111111,23.28,1.06,0.68,16.76
1,0,0,0.9,0.05,0.05,0.966667,0.0333333,0.60076,0,0.333333,0.333333,0.666667,1,0,0,1,1,0.125,0.222222,0.666667,0.666667,0,0.285714,0.111111,23.97,1.08,0.81,21.08
0,0,1,0,1,0,1,0,0.475285,0,0.333333,1,0.333333,0,1,1,0.5,0.5,0.1875,0.333333,0,0,0,0.285714,0.222222,30.75,0.17,0.3488,1.83
1,0,0,1,0,0,0.6,0.4,0.684411,1,1,0.666667,0.666667,0,0,0,1,1,0.125,0.166667,0.666667,0.75,1,0.285714,0.111111,14.34,1.05,0.74,11.14
1,0,0,0.5,0.5,0,0.6,0.4,0.562738,1,1,0.666667,0.666667,0,0,0,1,1,0.125,0.166667,0.666667,0.75,1,0.285714,0.111111,6.02,0.57,0.68,2.34
1,0,0,0,1,0,0.6,0.4,0.608365,1,1,0.666667,0.666667,0,0,0,1,1,0.125,0.166667,0.666667,0.75,1,0.285714,0.111111,1.03,0.15,0.51,0.07
0.25,0.75,0,0,0.95,0.5,1,0,0.532319,1,1,0.666667,0.333333,0,1,0,0.5,0.25,0.625,0.555556,0,0,1,0.2,0.111111,19.5,0.42,0.55,4.48
0.25,0.75,0,0,0.8,0.2,1,0,0.581749,1,1,0.666667,0.333333,0,1,0,0.5,0.25,0.625,0.555556,0,0,1,0.2,0.111111,11.84,0.15,0.46,0.8
1,0,0,0,1,0,0.666667,0.333333,0.593156,0,0.333333,0.333333,0.333333,0,0,0,0.5,0.25,0.5,0.5,0,0,0,0.357143,0.333333,14.38,0.77,0.5,5.48
1,0,0,0,1,0,0,1,0.81749,0,0.333333,0.333333,0.333333,0,0,0,0.5,0.25,0.5,0.5,0,0,0,0.357143,0.333333,8.26,0.88,0.59,3.27
0,0,1,0.99,0.01,0,1,0,1,0,0.333333,1,0.333333,0,1,1,1,0.75,0.1,0.111111,0.583333,0.583333,0,0.285714,0.166667,15.2,0.83,0.5731,7.23
0,0,1,0.96,0.04,0,1,0,0.593156,0,0.333333,1,0.333333,0,1,1,1,0.75,0.1,0.111111,0.583333,0.583333,0,0.285714,0.166667,18.76,0.97,0.7259,13.21
0,0,1,1,0,0,1,0,0.665399,0,0.333333,0,1,0,0,0,0.5,0.5,0.25,0.333333,0,0,0,0.314286,0.111111,13.46,0.71,0.46,4.45
0,0,1,0.96,0.04,0,1,0,0.676806,0,0.333333,0,1,0,0,0,0.5,0.5,0.25,0.333333,0,0,0,0.314286,0.111111,14.64,0.73,0.18,5.18
0.16,0.79,0.05,1,0,0,0.826667,0.173333,0.6121673,1,1,0.666667,0.666667,0,0,0,0.5,0.75,0.625,0.444444,0,0,0,0.285714,0.333333,19.82,0.7,0.6975,9.69
0.16,0.79,0.05,0.916,0.16,0,0.826667,0.173333,0.585551,1,1,0.666667,0.666667,0,0,0,0.5,0.75,0.625,0.444444,0,0,0,0.285714,0.333333,22.1,0.67,0.7031,10.41
0.16,0.79,0.05,0.832,0.168,0,0.826667,0.173333,0.558935,1,1,0.666667,0.666667,0,0,0,0.5,0.75,0.625,0.444444,0,0,0,0.285714,0.333333,24.79,0.71,0.7218,12.65
0.16,0.79,0.05,0.748,0.252,0,0.826667,0.173333,0.536122,1,1,0.666667,0.666667,0,0,0,0.5,0.75,0.625,0.444444,0,0,0,0.285714,0.333333,25.2,0.76,0.7415,14.11
0.16,0.79,0.05,0.664,0.336,0,0.826667,0.173333,0.524715,1,1,0.666667,0.666667,0,0,0,0.5,0.75,0.625,0.444444,0,0,0,0.285714,0.333333,26.59,0.8,0.7601,16.1
0.16,0.79,0.05,0.58,0.42,0,0.826667,0.173333,0.513308,1,1,0.666667,0.666667,0,0,0,0.5,0.75,0.625,0.444444,0,0,0,0.285714,0.333333,25.9,0.74,0.6951,13.25
0,0,1,1,0,0,0,1,0.874525,0,0.333333,0,1,0,0,0,0.5,0.25,0.25,0.333333,0,0,0,0.714286,0.0555556,7.4,1.24,0.73,6.7
0,0,1,1,0,0,0,1,0.874525,0,0.333333,0,1,0,0,0,0.5,0.25,0.125,0.333333,0,0,0,0.714286,0.0555556,7.7,1.14,0.52,4.6
0,0,1,1,1,0,1,0,0.646388,0,0.333333,0,1,0,0,0,0.5,0.25,0.25,0.333333,0,0,0,0.2,0.333333,6.96,1.26,0.57,5
0,0,1,0.9,0,0.1,0,1,0.870722,0,0.333333,0,1,0,0,0,1,0.25,0.25,0.333333,0.333333,0.5,0,0.714286,0.0555556,7.43,1.432,0.733,7.8
0,0,1,0.7,0,0.3,0,1,0.8327,0,0.333333,0,1,0,0,0,1,0.25,0.25,0.333333,0.333333,0.5,0,0.714286,0.0555556,7.45,1.536,0.802,9.2
0,0,1,0.9,0,0.1,0,1,0.798479,0,0.333333,0,1,0,0,0,1,0.25,0.25,0.333333,0.333333,0.5,0,0.714286,0.0555556,2.77,1.492,0.692,2.86
0,0,1,1,0,0,0,1,0.882129,0,0.333333,0,1,0,0,0,1,0.25,0.25,0.333333,0.333333,0.5,0,0.714286,0.0555556,6.89,1.37,0.768,7.25
0,0,1,0.97,0,0.03,0,1,0.863118,0,0.333333,0,1,0,0,0,1,0.25,0.25,0.333333,0.333333,0.5,0,0.714286,0.0555556,7.56,1.47,0.796,8.85
0,0,1,0.96,0,0.04,0,1,0.86692,0,0.333333,0,1,0,0,0,1,0.25,0.25,0.333333,0.333333,0.5,0,0.714286,0.0555556,7.56,1.52,0.794,9.12
0,0,1,0.99,0,0.01,0.666667,0.333333,0.722433,0,0.333333,1,0.333333,0,0,0,1,0.75,0.125,0.111111,0.666667,0.5,0,0.285714,0.0555556,14.3,0.938,0.622,8.3
0,0,1,0.97,0,0.03,0.666667,0.333333,0.722433,0,0.333333,1,0.333333,0,0,0,1,0.75,0.125,0.111111,0.666667,0.5,0,0.285714,0.0555556,14.2,0.999,0.692,9.8
0,0,1,1,0,0,0.333333,0.666667,0.790875,0,1,1,0.333333,0,0,0,0.5,0.5,0.3125,0.333333,0,0,0,0.457143,0.222222,10.56,0.85,0.62,5.52
0,0,1,1,0,0,0,1,0.889734,0,0.333333,0,1,0,0,0,0.5,0.75,0.25,0.333333,0,0,0,0.714286,0.111111,7.34,1.25,0.63,5.82
0,0,1,0.9,0.1,0,0.333333,0.666667,0.680608,0,0.333333,0,1,0,0,0,0.5,0.75,0.25,0.333333,0,0,0,1,0.111111,14.3,1.26,0.63,11.33
0,0,1,0.95,0,0.05,0.666667,0.333333,0.730038,0,0.333333,0.333333,0.333333,0,0,0,1,0.75,0.125,0.111111,0.5,0.5,0,0.8,0.111111,14.63,1.223,0.766,13.71
0,0.95,0.05,1,0,0,1,0,0.577947,0,0.333333,0.333333,0.666667,0,0,0,0.5,0.75,0.5,0.333333,0,0,1,0.428571,0.0555556,21.3,1,0.689,14.7
0,0.85,0.15,1,0,0,1,0,0.581749,0,0.333333,0.333333,0.666667,0,0,0,0.5,0.75,0.5,0.333333,0,0,1,0.428571,0.0555556,20.6,0.98,0.667,13.5
0,1,0,1,0,0,1,0,0.574144,0,0.333333,0.333333,0.666667,0,0,0,0.5,0.75,0.5,0.333333,0,0,1,0.428571,0.0555556,22.8,1.02,0.671,15.6
0,1,0,1,0,0,1,0,0.574144,0,0.333333,0.333333,0.666667,0,0,0,0.5,0.75,0.5,0.333333,0,0,1,0.428571,0.0555556,22.7,1.02,0.69,16
0,1,0,1,0,0,1,0,0.574144,0,0.333333,0.333333,0.666667,0,0,0,0.5,0.75,0.5,0.333333,0,0,1,0.428571,0.0555556,22.5,1.03,0.7,16.2
0,1,0,1,0,0,1,0,0.574144,0,0.333333,0.333333,0.666667,0,0,0,0.5,0.75,0.5,0.333333,0,0,1,0.428571,0.0555556,22.4,1.02,0.698,15.9
0,1,0,1,0,0,1,0,0.574144,0,0.333333,0.333333,0.666667,0,0,0,0.5,0.75,0.5,0.333333,0,0,1,0.428571,0.0555556,22.7,1.02,0.71,16.5
0,1,0,1,0,0,1,0,0.574144,0,0.333333,0.333333,0.666667,0,0,0,0.5,0.75,0.5,0.333333,0,0,1,0.428571,0.0555556,23.5,1.04,0.679,16.6
0,1,0,1,0,0,1,0,0.574144,0,0.333333,0.333333,0.666667,0,0,0,0.5,0.75,0.5,0.333333,0,0,1,0.428571,0.0555556,23,1.05,0.721,17.4
0,1,0,1,0,0,1,0,0.574144,0,0.333333,0.333333,0.666667,0,0,0,0.5,0.75,0.5,0.333333,0,0,1,0.428571,0.0555556,23.2,1.04,0.661,15.9
0,1,0,1,0,0,1,0,0.574144,0,0.333333,0.333333,0.666667,0,0,0,0.5,0.75,0.5,0.333333,0,0,1,0.428571,0.0555556,22.5,1.06,0.731,17.5
0,1,0,1,0,0,1,0,0.574144,0,0.333333,0.333333,0.666667,0,0,0,0.5,0.75,0.5,0.333333,0,0,1,0.428571,0.0555556,22.1,1,0.683,15.1
0,1,0,1,0,0,1,0,0.574144,0,0.333333,0.333333,0.666667,0,0,0,0.5,0.75,0.5,0.333333,0,0,1,0.428571,0.0555556,22.7,1.03,0.723,17
0,0,1,1,0,0,1,0,0.63308,0,0.333333,0.333333,0.333333,0,0,0,1,0.75,0.1875,0.111111,0.666667,0.5,0,0.514286,0.1,20.27,1.019,0.714,14.75
0,0,1,0.975,0,0.025,1,0,0.636122,0,0.333333,0.333333,0.333333,0,0,0,1,0.75,0.1875,0.111111,0.666667,0.5,0,0.514286,0.1,20.36,0.951,0.629,12.19
0,0,1,0.95,0,0.05,1,0,0.638403,0,0.333333,0.333333,0.333333,0,0,0,1,0.75,0.1875,0.111111,0.666667,0.5,0,0.514286,0.1,20.3,1.096,0.718,15.98
0,0,1,0.925,0,0.075,1,0,0.645627,0,0.333333,0.333333,0.333333,0,0,0,1,0.75,0.1875,0.111111,0.666667,0.5,0,0.514286,0.1,20.03,1.108,0.618,13.72
0,0,1,0.9,0,0.1,1,0,0.645627,0,0.333333,0.333333,0.333333,0,0,0,1,0.75,0.1875,0.111111,0.666667,0.5,0,0.514286,0.1,19.75,1.066,0.57,12
0.17,0.78,0.05,1,0,0,0.83,0.17,0.619772,0,0.333333,0.333333,0.333333,0,1,1,1,0.75,0.125,0.111111,1,0.333333,1,0.285714,0.666667,22.7,1.095,0.72,17.7
0.17,0.73,0.1,1,0,0,0.83,0.17,0.619772,0,0.333333,0.333333,0.333333,0,1,1,1,0.75,0.125,0.111111,1,0.333333,1,0.285714,0.666667,22,1.13,0.77,19.1
0.17,0.68,0.15,1,0,0,0.83,0.17,0.631179,0,0.333333,0.333333,0.333333,0,1,1,1,0.75,0.125,0.111111,1,0.333333,1,0.285714,0.666667,20,1.134,0.64,14.5
0.2,0.75,0.05,1,0,0,0.83,0.17,0.619772,0,0.333333,0.333333,0.333333,0,1,1,1,0.75,0.125,0.111111,1,0.333333,1,0.285714,0.666667,17.9,0.913,0.52,8.5
0.15,0.75,0.1,1,0,0,0.83,0.17,0.619772,0,0.333333,0.333333,0.333333,0,1,1,1,0.75,0.125,0.111111,1,0.333333,1,0.285714,0.666667,21,1.076,0.66,14.9
0.1,0.75,0.15,1,0,0,0.83,0.17,0.631179,0,0.333333,0.333333,0.333333,0,1,1,1,0.75,0.125,0.111111,1,0.333333,1,0.285714,0.666667,20.9,1.05,0.73,16
0.12,0.83,0.05,1,0,0,0.83,0.17,0.619772,0,0.333333,0.333333,0.333333,0,1,1,1,0.75,0.125,0.111111,1,0.333333,1,0.285714,0.666667,19.4,1.044,0.72,14.6
0.07,0.83,0.1,1,0,0,0.83,0.17,0.619772,0,0.333333,0.333333,0.333333,0,1,1,1,0.75,0.125,0.111111,1,0.333333,1,0.285714,0.666667,20.9,1.078,0.72,16.2
0,0.83,0.17,1,0,0,0.6,0.4,0.661597,0,0.666667,0.333333,0.333333,0,0,0,0.5,0.25,0.25,0.5,0,0,0,0.528571,1,19.9,1.1,0.707,15.1
0.1425,0.8475,0.05,1,0,0,0.15,0.85,0.61597,1,0.666667,0.333333,0.666667,0,1,1,1,0.5,0.125,0.111111,0.833333,0.5,1,0.285714,0.666667,23.57,1.119,0.7594,20.03
0.2,0.8,0,0.5,0.5,0,1,0,0.479087,1,1,1,0.666667,0,1,1,1,0.5,0.125,0.111111,0.833333,0.5,0,0.285714,0.0777778,30.8,0.79,0.706,17.2
0.195,0.78,0.025,0.5,0.5,0,1,0,0.479087,1,1,1,0.666667,0,1,1,0.5,0.5,0.625,0.111111,0,0,0,0.285714,0.0777778,32.5,0.78,0.718,18.2
0,0,1,1,0,0,0.666667,0.333333,0.730038,0,0.333333,0.333333,0.333333,0,0,0,0.5,0.25,0.1875,0.444444,0,0,0,0.8,0.111111,11.03,1.08,0.66,7.8
0,0,1,1,0,0,0.666667,0.333333,0.730038,0,0.333333,0.333333,0.333333,0,0,0,0.5,0.25,0.1875,0.444444,0,0,0,0.8,0.111111,10.83,1.13,0.71,8.5
0,0,1,1,0,0,0.666667,0.333333,0.730038,0,0.333333,0.333333,0.333333,0,0,0,0.5,0.25,0.1875,0.444444,0,0,0,0.8,0.111111,9.6,1.22,0.74,8.6
0,0,1,1,0,0,0.666667,0.333333,0.730038,0,0.333333,0.333333,0.333333,0,0,0,0.5,0.25,0.1875,0.444444,0,0,0,0.8,0.111111,9.7,1.21,0.72,8.5
0,0,1,1,0,0,0.666667,0.333333,0.730038,0,0.333333,0.333333,0.333333,0,0,0,0.5,0.25,0.1875,0.444444,0,0,0,0.8,0.111111,10.68,1.21,0.72,9.3
0,0,1,1,0,0,0.666667,0.333333,0.730038,0,0.333333,0.333333,0.333333,0,0,0,0.5,0.25,0.1875,0.444444,0,0,0,0.8,0.111111,9.66,1.18,0.67,7.6
0,0,1,1,0,0,0.666667,0.333333,0.730038,0,0.333333,0.333333,0.333333,0,0,0,0.5,0.25,0.1875,0.444444,0,0,0,0.8,0.111111,8.73,1.16,0.6,6.1
0,0,1,1,0,0,0.666667,0.333333,0.730038,0,0.333333,0.333333,0.333333,0,0,0,0.5,0.25,0.1875,0.444444,0,0,0,0.8,0.111111,9.32,1.18,0.71,7.9
0,0,1,1,0,0,0.666667,0.333333,0.730038,0,0.333333,0.333333,0.333333,0,0,0,0.5,0.25,0.1875,0.444444,0,0,0,0.8,0.111111,9.66,1.21,0.72,8.4
0,0,1,1,0,0,0.666667,0.333333,0.730038,0,0.333333,0.333333,0.333333,0,0,0,0.5,0.25,0.1875,0.444444,0,0,0,0.8,0.111111,9.23,1.21,0.74,8.3
0,0,1,1,0,0,0.666667,0.333333,0.657795,0,1,0,1,0,0,0,0.5,0.75,0.25,0.333333,0,0,0,1,0.111111,13.86,1.2,0.66,11.02
0,0,1,1,0,0,0.333333,0.666667,0.779468,0,0.333333,1,1,0,0,0,1,0.5,0.1875,0.222222,0.833333,1,0,0.8,0.111111,9.32,1.15,0.69,7.41
1,0,0,1,0,0,1,0,0.596958,0,0.333333,0.333333,0.333333,0,0,0,1,1,0.125,0.111111,0.5,0.25,0,0.285714,0.111111,14.64,0.858,0.688,8.64
1,0,0,1,0,0,1,0,0.596958,0,0.333333,0.333333,0.333333,0,0,0,1,1,0.125,0.111111,0.5,0.25,0,0.285714,0.111111,14.41,0.817,0.57,6.71
1,0,0,1,0,0,1,0,0.596958,0,0.333333,0.333333,0.333333,0,0,0,1,1,0.125,0.111111,0.5,0.25,0,0.285714,0.111111,15.3,0.799,0.61,7.44
1,0,0,1,0,0,1,0,0.596958,0,0.333333,0.333333,0.333333,0,0,0,1,1,0.125,0.111111,0.5,0.25,0,0.285714,0.111111,17.56,0.834,0.5999,8.76
1,0,0,1,0,0,1,0,0.596958,0,0.333333,0.333333,0.333333,0,0,0,1,1,0.125,0.111111,0.5,0.25,0,0.285714,0.111111,17.2,0.811,0.612,8.54
1,0,0,1,0,0,1,0,0.593156,0,0.333333,0.333333,0.333333,1,0,0,1,1,0.125,0.111111,0.5,0.25,0,0.285714,0.111111,22.26,0.976,0.685,14.88
1,0,0,1,0,0,1,0,0.593156,0,0.333333,0.333333,0.333333,1,0,0,1,1,0.125,0.111111,0.5,0.25,0,0.285714,0.111111,21.35,1.016,0.746,16.2
1,0,0,1,0,0,1,0,0.593156,0,0.333333,0.333333,0.333333,1,0,0,1,1,0.125,0.111111,0.5,0.25,0,0.285714,0.111111,20.1,0.998,0.722,14.47
1,0,0,1,0,0,1,0,0.593156,0,0.333333,0.333333,0.333333,1,0,0,1,1,0.125,0.111111,0.5,0.25,0,0.285714,0.111111,22.77,0.971,0.692,15.3
1,0,0,1,0,0,1,0,0.593156,0,0.333333,0.333333,0.333333,1,0,0,1,1,0.125,0.111111,0.5,0.25,0,0.285714,0.111111,21.14,0.993,0.75,15.75
0,0,1,0.995,0,0.005,0.336667,0.663333,0.703422,0,0.333333,0,1,0,0,0,0.5,0.25,0.25,0.333333,0,0,0,1,0.008333333,13.15,0.99,0.57,7.36
0,0,1,0.98,0,0.02,0.346667,0.653333,0.684411,0,0.333333,0,1,0,0,0,0.5,0.25,0.25,0.333333,0,0,0,1,0.008333333,11.86,0.95,0.49,5.41
0,0,1,0.99,0,0.01,0.666667,0.333333,0.728137,0,0.333333,1,0.333333,0,0,0,1,0.75,0.125,0.111111,0.5,0.5,0,0.8,0.111111,15.4,1.23,0.73,13.82
0,0,1,0.97,0,0.03,0.666667,0.333333,0.73308,0,0.333333,1,0.333333,0,0,0,1,0.75,0.125,0.111111,0.5,0.5,0,0.8,0.111111,15.9,1.298,0.76,15.68
0,0,1,1,0,0,0.666667,0.333333,0.730038,0,0.333333,1,0.333333,0,0,0,1,0.75,0.125,0.111111,0.5,0.5,0,0.8,0.111111,14.98,1.289,0.75,14.48
1,0,0,1,0,0,1,0,0.593156,0,0.333333,0.333333,0.333333,0,0,0,0.5,0.25,0.75,0.0555556,0,0,0,0.2,0.333333,17.45,0.977,0.6113,10.64
1,0,0,1,0,0,0.74,0.26,0.642586,0,0.333333,0.333333,0.333333,0,0,0,0.5,0.25,0.75,0.0555556,0,0,0,0.2,0.333333,10.39,0.936,0.6195,6.13
1,0,0,1,0,0,0.41,0.59,0.745247,0,0.333333,0.333333,0.333333,0,0,0,0.5,0.25,0.75,0.0555556,0,0,0,0.2,0.333333,6.35,0.834,0.524,2.8
1,0,0,1,0,0,0.05,0.95,0.847909,0,0.333333,0.333333,0.333333,0,0,0,0.5,0.25,0.75,0.0555556,0,0,0,0.2,0.333333,2.38,0.832,0.4981,1.03
0,0,1,1,0,0,1,0,0.657795,0,0.333333,1,0.333333,1,1,1,0.5,0.75,0.5,0.333333,0,0,0,0.857143,0.111111,14.72,1.211,0.788,14.05
0,0,1,1,0,0,1,0,0.657795,0,0.333333,1,0.333333,1,1,1,0.5,0.75,0.5,0.333333,0,0,0,0.857143,0.111111,14.62,1.176,0.783,13.47
0,0,1,1,0,0,1,0,0.657795,0,0.333333,1,0.333333,1,1,1,0.5,0.75,0.5,0.333333,0,0,0,0.857143,0.111111,14.55,1.227,0.787,14.05
0,0,1,0,1,0,1,0,0.48289,0,0.333333,0.333333,0.333333,0,1,0,0.5,0.5,0.25,0.444444,0,0,0,0.285714,0.111111,27.67,0.201,0.29,1.66
0,0,1,0,1,0,0.333333,0.666667,0.627376,0,0.333333,0.333333,0.333333,0,1,0,0.5,0.5,0.25,0.444444,0,0,0,0.285714,0.111111,11.57,0.311,0.43,1.56
0,0,1,1,0,0,0.666667,0.333333,0.730038,0,0.333333,0.333333,0.333333,0,0,0,0.5,0.25,0.1875,0.444444,0,0,0,0.8,0.0222222,10.8,1.18,0.69,8.8
0,0,1,1,0,0,0.666667,0.333333,0.730038,0,0.333333,0.333333,0.333333,0,0,0,0.5,0.25,0.1875,0.444444,0,0,0,0.8,0.0222222,10.7,1.22,0.73,9.6
0,0,1,1,0,0,0.666667,0.333333,0.730038,0,0.333333,0.333333,0.333333,0,0,0,0.5,0.25,0.1875,0.444444,0,0,0,0.8,0.0222222,10.4,1.2,0.75,9.4
0,0,1,1,0,0,0.666667,0.333333,0.730038,0,0.333333,0.333333,0.333333,0,0,0,0.5,0.25,0.1875,0.444444,0,0,0,0.8,0.0222222,10.2,1.16,0.73,8.6
0,0,1,1,0,0,0.666667,0.333333,0.730038,0,0.333333,0.333333,0.333333,0,0,0,0.5,0.25,0.1875,0.444444,0,0,0,0.8,0.0222222,10.6,1.2,0.71,8.9
0,0,1,1,0,0,0.666667,0.333333,0.730038,0,0.333333,0.333333,0.333333,0,0,0,0.5,0.25,0.1875,0.444444,0,0,0,0.8,0.0222222,10.1,1.22,0.73,9
0,0,1,1,0,0,0.666667,0.333333,0.730038,0,0.333333,0.333333,0.333333,0,0,0,0.5,0.25,0.1875,0.444444,0,0,0,0.8,0.0222222,11,1.22,0.71,9.6
0,0,1,1,0,0,0.666667,0.333333,0.730038,0,0.333333,0.333333,0.333333,0,0,0,0.5,0.25,0.1875,0.444444,0,0,0,0.8,0.0222222,11,1.25,0.75,10.3
0,0,1,1,0,0,0.666667,0.333333,0.730038,0,0.333333,0.333333,0.333333,0,0,0,0.5,0.25,0.1875,0.444444,0,0,0,0.8,0.0222222,12,1.23,0.73,10.7
0,0,1,1,0,0,0.666667,0.333333,0.730038,0,0.333333,0.333333,0.333333,0,0,0,0.5,0.25,0.1875,0.444444,0,0,0,0.8,0.0222222,11.8,1.19,0.68,9.5
0,0,1,1,0,0,0.666667,0.333333,0.730038,0,0.333333,0.333333,0.333333,0,0,0,0.5,0.25,0.1875,0.444444,0,0,0,0.8,0.0222222,11.4,1.2,0.69,9.4
0,0,1,1,0,0,0.666667,0.333333,0.730038,0,0.333333,0.333333,0.333333,0,0,0,0.5,0.25,0.1875,0.444444,0,0,0,0.8,0.0222222,11.6,1.19,0.67,9.2
0,0,1,1,0,0,0.666667,0.333333,0.730038,0,0.333333,0.333333,0.333333,0,0,0,0.5,0.25,0.1875,0.444444,0,0,0,0.8,0.0222222,12,1.22,0.7,10.3
0,0,1,1,0,0,0.666667,0.333333,0.730038,0,0.333333,0.333333,0.333333,0,0,0,0.5,0.25,0.1875,0.444444,0,0,0,0.8,0.0222222,11.6,1.2,0.68,9.6
0,0,1,1,0,0,0.666667,0.333333,0.730038,0,0.333333,0.333333,0.333333,0,0,0,0.5,0.25,0.1875,0.444444,0,0,0,0.8,0.0222222,11.7,1.22,0.7,10
0,0,1,1,0,0,0.666667,0.333333,0.722433,0,0.666667,0.333333,0.333333,0,0,0,0.5,0.75,0.375,0.277778,0,0,1,0.457143,0.111111,9.06,1.02,0.572,5.3
0,0,1,0.8,0,0.2,0.666667,0.333333,0.718631,0,0.666667,0.333333,0.333333,0,0,0,0.5,0.75,0.375,0.277778,0,0,1,0.457143,0.111111,12.15,1.27,0.701,10.8
0,0,1,1,0,0,0.666667,0.333333,0.726236,0,0.666667,0.333333,0.666667,0,0,0,0.5,0.75,0.625,0.333333,0,0,0,0.8,0.0666667,11.87,1.153,0.71,9.72
0,0,1,1,0,0,0.666667,0.333333,0.726236,0,0.666667,0.333333,0.666667,0,0,0,0.5,0.75,0.625,0.333333,0,0,0,0.8,0.0666667,11.93,1.203,0.69,9.9
0,0,1,1,0,0,0.666667,0.333333,0.726236,0,0.666667,0.333333,0.666667,0,0,0,0.5,0.75,0.625,0.333333,0,0,0,0.8,0.0666667,11.87,1.196,0.73,10.36
0,0,1,1,0,0,0.666667,0.333333,0.726236,0,0.666667,0.333333,0.666667,0,0,0,0.5,0.75,0.625,0.333333,0,0,0,0.8,0.0666667,12.01,1.175,0.73,10.3
0,0,1,1,0,0,0.666667,0.333333,0.726236,0,0.666667,0.333333,0.666667,0,0,0,0.5,0.75,0.625,0.333333,0,0,0,0.8,0.0666667,11.92,1.186,0.71,10.04
0,0,1,1,0,0,0.666667,0.333333,0.726236,0,0.666667,0.333333,0.666667,0,0,0,0.5,0.75,0.625,0.333333,0,0,0,0.8,0.0666667,12.12,1.254,0.78,11.85
0,0,1,1,0,0,0.666667,0.333333,0.726236,0,0.666667,0.333333,0.666667,0,0,0,0.5,0.75,0.625,0.333333,0,0,0,0.8,0.0666667,12.04,1.283,0.79,12.2
0,0,1,1,0,0,0.666667,0.333333,0.726236,0,0.666667,0.333333,0.666667,0,0,0,0.5,0.75,0.625,0.333333,0,0,0,0.8,0.0666667,12.05,1.236,0.72,10.72
0,0,1,1,0,0,0.666667,0.333333,0.726236,0,0.666667,0.333333,0.666667,0,0,0,0.5,0.75,0.625,0.333333,0,0,0,0.8,0.0666667,12.01,1.282,0.75,11.55
0,0,1,1,0,0,0.666667,0.333333,0.726236,0,0.666667,0.333333,0.666667,0,0,0,0.5,0.75,0.625,0.333333,0,0,0,0.8,0.0666667,11.87,1.247,0.74,10.95
0,0,1,1,0,0,0.666667,0.333333,0.726236,0,0.333333,0.333333,0.666667,0,0,0,0.5,0.75,0.625,0.333333,0,0,0,0.8,0.0666667,13.56,1.243,0.74,12.52
0,0,1,1,0,0,0.666667,0.333333,0.726236,0,0.333333,0.333333,0.666667,0,0,0,0.5,0.75,0.625,0.333333,0,0,0,0.8,0.0666667,13.16,1.248,0.74,12.15
0,0,1,1,0,0,0.666667,0.333333,0.726236,0,0.333333,0.333333,0.666667,0,0,0,0.5,0.75,0.625,0.333333,0,0,0,0.8,0.0666667,12.89,1.246,0.75,12.05
0,0,1,1,0,0,0.666667,0.333333,0.726236,0,0.333333,0.333333,0.666667,0,0,0,0.5,0.75,0.625,0.333333,0,0,0,0.8,0.0666667,12.93,1.225,0.75,11.88
0,0,1,1,0,0,0.666667,0.333333,0.726236,0,0.333333,0.333333,0.666667,0,0,0,0.5,0.75,0.625,0.333333,0,0,0,0.8,0.0666667,13.4,1.24,0.71,11.8
0,0,1,1,0,0,0.666667,0.333333,0.726236,0,0.333333,0.333333,0.666667,0,0,0,0.5,0.75,0.625,0.333333,0,0,0,0.8,0.0666667,12.4,1.26,0.75,11.7
0,0,1,1,0,0,0.666667,0.333333,0.726236,0,0.333333,0.333333,0.666667,0,0,0,0.5,0.75,0.625,0.333333,0,0,0,0.8,0.0666667,13.03,1.227,0.72,11.51
0,0,1,1,0,0,0.666667,0.333333,0.726236,0,0.333333,0.333333,0.666667,0,0,0,0.5,0.75,0.625,0.333333,0,0,0,0.8,0.0666667,13.43,1.245,0.69,11.45
0,0,1,1,0,0,0.666667,0.333333,0.726236,0,0.333333,0.333333,0.666667,0,0,0,0.5,0.75,0.625,0.333333,0,0,0,0.8,0.0666667,12.54,1.217,0.73,11.13
0,0,1,1,0,0,0.666667,0.333333,0.726236,0,0.333333,0.333333,0.666667,0,0,0,0.5,0.75,0.625,0.333333,0,0,0,0.8,0.0666667,12.18,1.225,0.74,11.01
0,0,1,1,0,0,0.666667,0.333333,0.726236,0,0.333333,0.333333,0.666667,0,0,0,0.5,0.75,0.625,0.333333,0,0,0,0.8,0.0666667,13.2,1.18,0.7,10.9
0,0,1,1,0,0,0.666667,0.333333,0.726236,0,0.333333,0.333333,0.666667,0,0,0,0.5,0.75,0.625,0.333333,0,0,0,0.8,0.0666667,12.5,1.185,0.72,10.7
0,0,1,1,0,0,0.666667,0.333333,0.726236,0,0.333333,0.333333,0.666667,0,0,0,0.5,0.75,0.625,0.333333,0,0,0,0.8,0.0666667,13.01,1.26,0.64,10.54
0,0,1,1,0,0,0.666667,0.333333,0.726236,0,0.333333,0.333333,0.666667,0,0,0,0.5,0.75,0.625,0.333333,0,0,0,0.8,0.0666667,12.7,1.23,0.67,10.4
0,0,1,1,0,0,0.666667,0.333333,0.726236,0,0.333333,0.333333,0.666667,0,0,0,0.5,0.75,0.625,0.333333,0,0,0,0.8,0.0666667,12.11,1.252,0.67,10.1
0,0,1,1,0,0,0.666667,0.333333,0.726236,0,0.333333,0.333333,0.666667,0,0,0,0.5,0.75,0.625,0.333333,0,0,0,0.8,0.0666667,11.88,1.244,0.66,9.7
0,0,1,1,0,0,0.666667,0.333333,0.726236,0,0.333333,0.333333,0.666667,0,0,0,0.5,0.75,0.625,0.333333,0,0,0,0.8,0.0666667,11.8,1.269,0.63,9.37
0,0,1,1,0,0,0.666667,0.333333,0.726236,0,0.666667,0.333333,0.666667,0,0,0,0.5,0.75,0.625,0.333333,0,0,0,0.8,0.0666667,12.58,1.256,0.77,12.17
0,0,1,1,0,0,0.666667,0.333333,0.726236,0,0.666667,0.333333,0.666667,0,0,0,0.5,0.75,0.625,0.333333,0,0,0,0.8,0.0666667,11.64,1.283,0.79,11.8
0,0,1,0,1,0,1,0,0.479087,0,0.333333,1,0.333333,0,1,1,0.5,0.75,0.3125,0.666667,0,0,0,0.285714,0.222222,12.14,0.2436,0.4144,1.23
0,1,0,0,1,0,1,0,0.547529,1,1,0.666667,0.666667,1,0,1,0.5,0.5,0.625,1,0,0,1,0.2,0.111111,19.4,0.494,0.64,6.1
0,1,0,0,1,0,1,0,0.547529,1,1,0.666667,0.666667,1,0,1,0.5,0.5,0.625,1,0,0,1,0.2,0.111111,20.3,0.468,0.655,6.2
0,1,0,0,1,0,1,0,0.547529,1,1,0.666667,0.666667,1,0,1,0.5,0.5,0.625,1,0,0,1,0.2,0.111111,21.2,0.483,0.666,6.8
0,1,0,0,1,0,1,0,0.547529,1,1,0.666667,0.666667,1,0,1,0.5,0.5,0.625,1,0,0,1,0.2,0.111111,20.8,0.481,0.632,6.3
0,1,0,0,1,0,1,0,0.547529,1,1,0.666667,0.666667,1,0,1,0.5,0.5,0.625,1,0,0,1,0.2,0.111111,20.4,0.483,0.634,6.3
0,1,0,0,1,0,1,0,0.547529,1,1,0.666667,0.666667,1,0,1,0.5,0.5,0.625,1,0,0,1,0.2,0.111111,20.9,0.488,0.693,7.1
0,1,0,0,1,0,1,0,0.547529,1,1,0.666667,0.666667,1,0,1,0.5,0.5,0.625,1,0,0,1,0.2,0.111111,19.5,0.497,0.678,6.6
0,1,0,0,1,0,1,0,0.547529,1,1,0.666667,0.666667,1,0,1,0.5,0.5,0.625,1,0,0,1,0.2,0.111111,20.9,0.486,0.643,6.5
0,1,0,0,1,0,1,0,0.547529,1,1,0.666667,0.666667,1,0,1,0.5,0.5,0.625,1,0,0,1,0.2,0.111111,21.3,0.476,0.612,6.2
0,1,0,0,1,0,1,0,0.547529,1,1,0.666667,0.666667,1,0,1,0.5,0.5,0.625,1,0,0,1,0.2,0.111111,18,0.538,0.704,6.8
0,1,0,0,1,0,1,0,0.547529,1,1,0.666667,0.666667,1,0,1,0.5,0.5,0.625,1,0,0,1,0.2,0.111111,18,0.536,0.701,6.8
0,1,0,0,1,0,1,0,0.547529,1,1,0.666667,0.666667,1,0,1,0.5,0.5,0.625,1,0,0,1,0.2,0.111111,19,0.545,0.665,6.9
0,1,0,1,0,0,1,0,0.580989,0,0.666667,0.333333,0.333333,0,0,0,0.5,0.75,0.5,0.666667,0,0,1,0.428571,0.111111,22.42,0.94,0.5844,12.31
0,0.95,0.05,1,0,0,1,0,0.58327,0,0.666667,0.333333,0.333333,0,0,0,0.5,0.75,0.5,0.666667,0,0,1,0.428571,0.111111,21.66,0.94,0.6337,12.94
0,0.9,0.1,1,0,0,1,0,0.591635,0,0.666667,0.333333,0.333333,0,0,0,0.5,0.75,0.5,0.666667,0,0,1,0.428571,0.111111,21.8,0.99,0.7167,15.4
0,0.85,0.15,1,0,0,1,0,0.595057,0,0.666667,0.333333,0.333333,0,0,0,0.5,0.75,0.5,0.666667,0,0,1,0.285714,0.111111,21.55,1.01,0.7213,15.75
0,0.8,0.2,1,0,0,1,0,0.598859,0,0.666667,0.333333,0.333333,0,0,0,0.5,0.75,0.5,0.666667,0,0,1,0.285714,0.111111,21.73,1.03,0.7237,16.18
0,0.75,0.25,1,0,0,1,0,0.60038,0,0.666667,0.333333,0.333333,0,0,0,0.5,0.75,0.5,0.666667,0,0,1,0.285714,0.111111,20.83,1.01,0.7463,15.68
0,0.7,0.3,1,0,0,1,0,0.601521,0,0.666667,0.333333,0.333333,0,0,0,0.5,0.75,0.5,0.666667,0,0,1,0.285714,0.111111,20.33,1.03,0.7248,15.21
0,0.8,0.2,1,0,0,1,0,0.598859,0,0.666667,0.333333,0.333333,0,1,0,0.5,0.75,0.5,0.666667,0,0,1,0.285714,0.111111,21.65,1.03,0.7468,16.68
1,0,0,1,0,0,1,0,0.608365,0,0.333333,0.333333,0.333333,0,0,0,0.5,0.25,0.625,0.333333,0,0,0,0.285714,0.111111,12.88,0.622,0.3662,2.94
1,0,0,1,0,0,1,0,0.60076,0,0.333333,0.333333,0.333333,0,0,0,0.5,0.25,0.625,0.333333,0,0,0,0.285714,0.111111,17.57,0.698,0.4488,5.63
0,0,1,1,0,0,0,1,0.878327,0,0.333333,0,1,0,0,0,0.5,0.75,0.25,0.333333,0,0,0,0.714286,0.0555556,6.89,1.49,0.79,8.11
0,0,1,1,0,0,0,1,0.878327,0,0.333333,0,1,0,0,0,0,0.75,0.25,0.333333,0,0,0,0.714286,0.0555556,5.38,1.29,0.71,4.92
0,0,1,1,0,0,0,1,0.878327,0,0.333333,0,1,0,0,0,0,0.75,0.25,0.333333,0,0,0,0.714286,0.0555556,5.38,1.3,0.65,4.54
0,0,1,1,0,0,0,1,0.878327,0,0.333333,0,1,0,0,0,0.5,0.75,0.25,0.333333,0,0,0,0.714286,0.0555556,6.98,1.42,0.77,7.58
0,0,1,1,0,0,0,1,0.878327,0,0.333333,0,1,0,0,0,0.5,0.75,0.25,0.333333,0,0,0,0.714286,0.0555556,5.88,1.35,0.77,6.09
1,0,0,0.75,0.25,0,1,0,0.448669,0,1,0.666667,0.666667,0,0,0,1,0.75,0.625,0.333333,0.666667,0.5,0,0.342857,0.222222,20.29,0.944,0.7111,13.61
1,0,0,0.75,0.25,0,1,0,0.448669,0,1,0.666667,0.666667,0,0,0,1,0.75,0.625,0.333333,0.666667,0.5,0,0.342857,0.222222,20.65,0.9578,0.7416,14.67
1,0,0,1,0,0,1,0,0.593156,0,1,0.666667,0.666667,0,0,0,1,0.75,0.625,0.333333,0.666667,0.5,0,0.4,0.222222,22.82,0.757,0.709,12.25
1,0,0,1,0,0,1,0,0.593156,0,1,0.666667,0.666667,0,0,0,1,0.75,0.625,0.333333,0.666667,0.5,0,0.4,0.222222,23.87,0.7454,0.7474,13.3
1,0,0,1,0,0,1,0,0.6121673,1,1,0.666667,0.666667,1,0,0,1,1,0.125,0.166667,0.666667,0.75,1,0.285714,0.111111,19.6,0.92,0.78,14.07
1,0,0,0.5,0.5,0,1,0,0.494297,1,1,0.666667,0.666667,1,0,0,1,1,0.125,0.166667,0.666667,0.75,1,0.285714,0.111111,11.07,0.52,0.64,3.68
1,0,0,0,1,0,1,0,0.513308,1,1,0.666667,0.666667,1,0,0,1,1,0.125,0.166667,0.666667,0.75,0,0.285714,0.111111,4.52,0.15,0.38,0.26
0.5,0.5,0,0.75,0.25,0,1,0,0.505703,1,1,0.666667,0.666667,1,0,0,1,1,0.125,0.166667,0.666667,0.75,1,0.285714,0.111111,23.03,0.78,0.79,14.19
0,1,0,0.75,0.25,0,1,0,0.498099,1,1,0.666667,0.666667,1,0,0,1,1,0.125,0.166667,0.666667,0.75,1,0.285714,0.111111,18.08,0.75,0.54,7.32
0.9,0,0.1,0.75,0.25,0,1,0,0.528517,1,1,0.666667,0.666667,0,1,1,1,1,0.125,0.166667,0.666667,0.666667,1,0.285714,0.111111,22.8,0.84,0.76,14.55
0.9,0,0.1,0.25,0.75,0,1,0,0.479087,1,1,0.666667,0.666667,0,1,1,1,1,0.125,0.166667,0.666667,0.666667,1,0.285714,0.111111,21.84,0.48,0.609,6.38
1,0,0,0,1,0,1,0,0.501901,1,1,0.666667,0.666667,0,0,0,1,1,0.125,0.166667,0.666667,0.666667,1,0.285714,0.111111,18.65,0.62,0.55,6.36
0.7,0,0.3,0.5,0.5,0,1,0,0.501901,1,1,0.666667,0.666667,0,1,1,1,1,0.125,0.166667,0.666667,0.666667,1,0.285714,0.111111,14.96,0.39,0.504,2.94
0,0,1,1,0,0,0.666667,0.333333,0.714829,0,1,1,0.666667,1,1,0,1,0.75,0.125,0.0555556,0.5,0.5,0,0.457143,0.0555556,15.83,1.23,0.8298,16.13
0,0,1,1,0,0,0.666667,0.333333,0.714829,0,1,1,0.666667,1,1,0,1,0.75,0.125,0.0555556,0.5,0.5,0,0.457143,0.0555556,15.55,1.152,0.8079,14.47
0,0,1,1,0,0,0.666667,0.333333,0.714829,0,1,1,0.666667,1,1,0,1,0.75,0.125,0.0555556,0.5,0.5,0,0.457143,0.0555556,15.64,1.191,0.8187,15.25
1,0,0,1,0,0,1,0,0.570342,0,0.666667,0.333333,0.333333,0,0,0,0.5,0.25,0.25,0.166667,0,0,0,0.2,0.333333,20.9,0.99,0.65,13.5
1,0,0,1,0,0,1,0,0.570342,0,1,0.666667,0.666667,1,0,0,1,0.75,0.625,0.333333,0.833333,0.5,0,0.4,0.222222,19.97,0.95,0.78,14.83
1,0,0,0.5,0.5,0,1,0,0.448669,1,1,0.666667,0.666667,0,0,0,1,0.25,0.75,0.666667,0.416667,0.5,0,0.314286,0.5,26.3,0.75,0.688,13.6
1,0,0,0.5,0.5,0,1,0,0.448669,1,1,0.666667,0.666667,0,0,0,1,0.25,0.75,0.666667,0.416667,0.5,0,0.314286,0.5,25.2,0.74,0.653,12.2
1,0,0,1,0,0,1,0,0.570342,0,0.333333,1,0.333333,0,0,0,0.5,0.25,0.75,0.666667,0,0,0,0.2,0.333333,20.28,1.023,0.713,14.79
1,0,0,1,0,0,1,0,0.570342,0,0.333333,0.333333,0.333333,0,0,0,0.5,0.25,0.75,0.666667,0,0,0,0.2,0.333333,20.31,1.036,0.723,15.23
1,0,0,1,0,0,1,0,0.589354,0,0.333333,0.333333,1,0,0,0,0.5,0.25,0.8125,0.333333,0,0,0,0.285714,0.111111,20.8,1.101,0.67,13.6
1,0,0,1,0,0,1,0,0.589354,0,0.333333,0.333333,1,0,0,0,0.5,0.25,0.8125,0.333333,0,0,0,0.285714,0.111111,19.9,1.022,0.68,13.3
0,0,1,1,0,0,0.666667,0.333333,0.722433,0,0.333333,0.333333,0.333333,1,0,0,1,0.75,0.125,0.111111,0.666667,0.666667,0,0.342857,0.111111,14.89,1.18,0.7723,13.54
0,0,1,1,0,0,0.666667,0.333333,0.722433,0,0.333333,0.333333,0.333333,1,0,0,1,0.75,0.125,0.111111,0.666667,0.666667,0,0.285714,0.111111,14.33,1.16,0.6571,10.91
0,0,1,1,0,0,0.666667,0.333333,0.722433,0,0.333333,0.333333,0.333333,1,0,0,1,0.75,0.125,0.111111,0.666667,0.666667,0,0.342857,0.111111,14.47,1.17,0.6737,11.4
0,0,1,1,0,0,0.666667,0.333333,0.722433,0,0.333333,0.333333,0.333333,1,0,0,1,0.75,0.125,0.111111,0.666667,0.666667,0,0.4,0.111111,14.17,1.12,0.6634,10.51
0,0,1,1,0,0,0.666667,0.333333,0.722433,0,0.333333,0.333333,0.333333,1,0,0,1,0.75,0.125,0.111111,0.666667,0.666667,0,0.371429,0.111111,14.82,1.12,0.6864,11.42
0,0,1,1,0,0,0.666667,0.333333,0.722433,0,0.333333,0.333333,0.333333,1,0,0,1,0.75,0.125,0.111111,0.666667,0.666667,0,0.342857,0.111111,15.55,1.15,0.7564,13.57
0,1,0,0,1,0,1,0,0.528517,1,1,1,0.666667,0,0,0,1,0.75,0.25,0.0555556,0.833333,0.5,0,0.2,0.111111,17.72,0.25,0.5111,2.34
0,1,0,0,1,0,1,0,0.528517,1,1,1,0.666667,0,1,0,1,0.75,0.25,0.0555556,0.833333,0.5,0,0.2,0.111111,19.55,0.5,0.6371,6.25
0,0,1,1,0,0,0.666667,0.333333,0.722433,0,0.333333,0.333333,0.333333,0,0,0,1,0.75,0.125,0.111111,0.666667,0.75,1,0.571429,0.111111,14.72,1.14,0.6755,11.36
0,0,1,1,0,0,0.666667,0.333333,0.722433,0,0.333333,0.333333,0.333333,1,0,0,1,0.75,0.125,0.111111,0.666667,0.75,1,0.571429,0.111111,15.33,1.22,0.787,14.78
0,0,1,1,0,0,0.666667,0.333333,0.722433,0,0.333333,0.333333,0.333333,1,0,0,1,0.75,0.125,0.111111,0.666667,0.75,1,0.571429,0.111111,14.86,1.18,0.7299,12.8
0,0,1,0,1,0,1,0,0.661597,0,0.333333,0.333333,0.333333,0,0,0,0.5,1,0.1875,0.333333,0,0,0,0.285714,0.222222,9.4,0.58,0.57,3.1
0,1,0,0,1,0,1,0,0.532319,1,1,0.666667,0.666667,0,0,0,0.5,0.75,0.625,0.333333,0,0,0,0.271429,0.166667,19.95,0.408,0.5822,4.74
0,1,0,0,1,0,1,0,0.532319,1,1,0.666667,0.666667,0,0,0,0.5,0.75,0.625,0.333333,0,0,0,0.271429,0.166667,19.46,0.384,0.6018,4.5
0,1,0,0,1,0,1,0,0.532319,1,1,0.666667,0.666667,0,0,0,0.5,0.75,0.625,0.333333,0,0,0,0.271429,0.166667,19.41,0.384,0.5896,4.4
0,1,0,0,1,0,1,0,0.532319,1,1,0.666667,0.666667,0,0,0,0.5,0.75,0.625,0.333333,0,0,0,0.271429,0.166667,19.74,0.372,0.585,4.3
0,1,0,0,1,0,1,0,0.532319,1,1,0.666667,0.666667,0,0,0,0.5,0.75,0.625,0.333333,0,0,0,0.271429,0.166667,19.17,0.394,0.5614,4.25
0,1,0,0,1,0,1,0,0.532319,1,1,0.666667,0.666667,0,0,0,0.5,0.75,0.625,0.333333,0,0,0,0.271429,0.166667,18.57,0.381,0.578,4.09
0,1,0,0,1,0,1,0,0.532319,1,1,0.666667,0.666667,0,0,0,0.5,0.75,0.625,0.333333,0,0,0,0.271429,0.166667,18.17,0.361,0.6068,3.97
0,1,0,0,1,0,1,0,0.532319,1,1,0.666667,0.666667,0,0,0,0.5,0.75,0.625,0.333333,0,0,0,0.271429,0.166667,18.39,0.363,0.5853,3.91
0,1,0,0,1,0,1,0,0.532319,1,1,0.666667,0.666667,0,0,0,0.5,0.75,0.625,0.333333,0,0,0,0.271429,0.166667,18.27,0.366,0.5699,3.82
0,1,0,0,1,0,1,0,0.532319,1,1,0.666667,0.666667,0,0,0,0.5,0.75,0.625,0.333333,0,0,0,0.271429,0.166667,16.42,0.358,0.5987,3.53
0,1,0,0,1,0,1,0,0.532319,1,1,0.666667,0.666667,0,0,0,0.5,0.75,0.625,0.333333,0,0,0,0.271429,0.166667,16.98,0.351,0.5588,3.38
0,1,0,0,1,0,1,0,0.532319,1,1,0.666667,0.666667,0,0,0,0.5,0.75,0.625,0.333333,0,0,0,0.271429,0.166667,16.19,0.355,0.5601,3.21
0,1,0,0,1,0,1,0,0.532319,1,1,0.666667,0.666667,0,0,0,0.5,0.75,0.625,0.333333,0,0,0,0.271429,0.166667,17.24,0.326,0.5024,2.71
0,1,0,0,1,0,1,0,0.532319,1,1,0.666667,0.666667,0,0,0,0.5,0.75,0.625,0.333333,0,0,0,0.271429,0.166667,21.89,0.494,0.6503,7.03
0,1,0,0,1,0,1,0,0.532319,1,1,0.666667,0.666667,0,0,0,0.5,0.75,0.625,0.333333,0,0,0,0.271429,0.166667,21.83,0.492,0.6462,6.93
0,1,0,0,1,0,1,0,0.532319,1,1,0.666667,0.666667,0,0,0,0.5,0.75,0.625,0.333333,0,0,0,0.271429,0.166667,21.95,0.478,0.646,6.78
0,1,0,0,1,0,1,0,0.532319,1,1,0.666667,0.666667,0,0,0,0.5,0.75,0.625,0.333333,0,0,0,0.271429,0.166667,21.54,0.477,0.6417,6.59
0,1,0,0,1,0,1,0,0.532319,1,1,0.666667,0.666667,0,0,0,0.5,0.75,0.625,0.333333,0,0,0,0.271429,0.166667,21.48,0.469,0.6408,6.47
0,1,0,0,1,0,1,0,0.532319,1,1,0.666667,0.666667,0,0,0,0.5,0.75,0.625,0.333333,0,0,0,0.271429,0.166667,21.93,0.477,0.6128,6.41
0,1,0,0,1,0,1,0,0.532319,1,1,0.666667,0.666667,0,0,0,0.5,0.75,0.625,0.333333,0,0,0,0.271429,0.166667,20.91,0.471,0.6388,6.3
0,1,0,0,1,0,1,0,0.532319,1,1,0.666667,0.666667,0,0,0,0.5,0.75,0.625,0.333333,0,0,0,0.271429,0.166667,21.35,0.481,0.6074,6.25
0,1,0,0,1,0,1,0,0.532319,1,1,0.666667,0.666667,0,0,0,0.5,0.75,0.625,0.333333,0,0,0,0.271429,0.166667,20.52,0.485,0.6129,6.1
0,1,0,0,1,0,1,0,0.532319,1,1,0.666667,0.666667,0,0,0,0.5,0.75,0.625,0.333333,0,0,0,0.271429,0.166667,20.35,0.482,0.6162,6.05
0,1,0,0,1,0,1,0,0.532319,1,1,0.666667,0.666667,0,0,0,0.5,0.75,0.625,0.333333,0,0,0,0.271429,0.166667,19.97,0.478,0.6194,5.92
0,1,0,0,1,0,1,0,0.532319,1,1,0.666667,0.666667,0,0,0,0.5,0.75,0.625,0.333333,0,0,0,0.271429,0.166667,19.86,0.483,0.6001,5.75
0.15,0.8,0.05,1,0,0,1,0,0.593156,0,0.333333,0,1,1,0,0,1,0.75,0.125,0.111111,0.666667,0.5,1,0.285714,0.333333,24.23,1.01,0.78,19.11
0.15,0.8,0.05,1,0,0,1,0,0.593156,0,0.333333,0,1,1,0,0,1,0.75,0.125,0.111111,0.666667,0.5,1,0.285714,0.333333,25.25,1.02,0.79,20.3
0.1615,0.7885,0.05,1,0,0,0.83,0.17,0.562738,0,0.666667,1,0.666667,1,0,0,1,0.75,0.075,0.0666667,0.666667,0.666667,1,0.428571,0.111111,24.15,1.174,0.7859,21.36
0.1615,0.7885,0.05,1,0,0,0.83,0.17,0.562738,0,0.666667,1,0.666667,1,0,0,1,0.75,0.075,0.0666667,0.666667,0.666667,1,0.428571,0.111111,23.47,1.178,0.7761,20.76
0.08,0.92,0,1,0,0,1,0,0.581749,0,0.666667,1,0.333333,0,0,0,1,0.75,0.375,0.333333,0.416667,0.5,0,0.428571,0.166667,24.75,1.16,0.7932,22.63
0.08,0.92,0,1,0,0,1,0,0.581749,0,0.666667,1,0.333333,0,0,0,1,0.75,0.375,0.333333,0.416667,0.5,0,0.428571,0.166667,24.72,1.15,0.7839,22.34
0.05,0.9,0.05,1,0,0,0.9,0.1,0.603042,0,0.333333,1,0.666667,0,0,0,1,0.75,0.125,0.111111,0.666667,0.333333,1,0.285714,0.666667,25.02,1.16,0.8,23.22
0.02,0.98,0.05,1,0,0,1,0,0.589354,0,1,0,1,0,0,1,1,0.75,0.25,0.277778,0.833333,0.5,1,0.314286,0.222222,25.35,1.122,0.8231,23.41
0.02,0.98,0.05,1,0,0,1,0,0.589354,0,1,0,1,0,0,1,1,0.75,0.25,0.277778,0.833333,0.5,1,0.314286,0.222222,25.59,1.171,0.8663,25.96
0.14,0.8,0.06,1,0,0,1,0,0.589354,1,1,0,0.666667,1,0,1,1,0.75,0.125,0.111111,0.833333,0.5,1,0.285714,0.333333,24.53,1.18,0.8426,24.39
0.14,0.8,0.06,1,0,0,1,0,0.589354,1,1,0,0.666667,1,0,1,1,0.75,0.125,0.111111,0.833333,0.5,1,0.285714,0.333333,24.52,1.18,0.8427,24.38
0.14,0.8,0.06,1,0,0,1,0,0.589354,1,1,0,0.666667,1,0,1,1,0.75,0.125,0.111111,0.833333,0.5,1,0.285714,0.333333,24.48,1.18,0.8384,24.22
0.14,0.8,0.06,1,0,0,1,0,0.589354,1,1,0,0.666667,1,0,1,1,0.75,0.125,0.111111,0.833333,0.5,1,0.285714,0.333333,24.45,1.18,0.8344,24.07
0.14,0.8,0.06,1,0,0,1,0,0.589354,1,1,0,0.666667,1,0,1,1,0.75,0.125,0.111111,0.833333,0.5,1,0.285714,0.333333,24.21,1.18,0.8373,23.92
0.14,0.8,0.06,1,0,0,1,0,0.589354,1,1,0,0.666667,1,0,1,1,0.75,0.125,0.111111,0.833333,0.5,1,0.285714,0.333333,24.44,1.18,0.8427,24.3
0.14,0.8,0.06,1,0,0,1,0,0.589354,1,1,0,0.666667,1,0,1,1,0.75,0.125,0.111111,0.833333,0.5,1,0.285714,0.333333,24.58,1.18,0.8352,24.23
0.14,0.8,0.06,1,0,0,1,0,0.589354,1,1,0,0.666667,1,0,1,1,0.75,0.125,0.111111,0.833333,0.5,1,0.285714,0.333333,24.22,1.18,0.8439,24.12
0.14,0.8,0.06,1,0,0,1,0,0.589354,1,1,0,0.666667,1,0,1,1,0.75,0.125,0.111111,0.833333,0.5,1,0.285714,0.333333,24.43,1.18,0.8402,24.23
0.14,0.8,0.06,1,0,0,1,0,0.589354,1,1,0,0.666667,1,0,1,1,0.75,0.125,0.111111,0.833333,0.5,1,0.285714,0.333333,24.48,1.17,0.8298,23.74
0,0.8,0.2,1,0,0,0.6,0.4,0.676806,1,1,0,0.666667,1,0,1,0.5,0.75,0.625,0.333333,0,0,1,0.285714,0.111111,24.47,1.17,0.7856,22.49
0,0.8,0.2,1,0,0,0.6,0.4,0.676806,1,1,0,0.666667,1,0,1,0.5,0.75,0.625,0.333333,0,0,1,0.285714,0.111111,24.74,1.18,0.7375,21.53
0,0.8,0.2,1,0,0,0.6,0.4,0.676806,1,1,0,0.666667,1,0,1,0.5,0.75,0.625,0.333333,0,0,1,0.285714,0.111111,24.96,1.18,0.7584,22.34
0,0.8,0.2,1,0,0,0.6,0.4,0.676806,1,1,0,0.666667,1,0,1,0.5,0.75,0.625,0.333333,0,0,1,0.285714,0.111111,24.75,1.18,0.7396,21.6
0,0.8,0.2,1,0,0,0.6,0.4,0.676806,1,1,0,0.666667,1,0,1,0.5,0.75,0.625,0.333333,0,0,1,0.285714,0.111111,24.66,1.17,0.7408,21.37
0,0.8,0.2,1,0,0,0.6,0.4,0.676806,1,1,0,0.666667,1,0,1,0.5,0.75,0.625,0.333333,0,0,1,0.285714,0.111111,24.88,1.18,0.7163,21.03
0,0.8,0.2,1,0,0,0.6,0.4,0.676806,1,1,0,0.666667,1,0,1,0.5,0.75,0.625,0.333333,0,0,1,0.285714,0.111111,24.4,1.17,0.7267,20.75
0,0.8,0.2,1,0,0,0.6,0.4,0.676806,1,1,0,0.666667,1,0,1,0.5,0.75,0.625,0.333333,0,0,1,0.285714,0.111111,24.49,1.17,0.7217,20.67
0,0.8,0.2,1,0,0,0.6,0.4,0.676806,1,1,0,0.666667,1,0,1,0.5,0.75,0.625,0.333333,0,0,1,0.285714,0.111111,24.74,1.18,0.7259,21.19
0,0.8,0.2,1,0,0,0.6,0.4,0.676806,1,1,0,0.666667,1,0,1,0.5,0.75,0.625,0.333333,0,0,1,0.285714,0.111111,24.47,1.17,0.7856,22.49
0,1,0,1,0,0,1,0,0.580608,0,0.666667,1,0.333333,0,0,0,1,0.75,0.125,0.0555556,0.833333,0.583333,1,0.285714,0.277778,24.85,1.143,0.8212,22.38
0,1,0,1,0,0,1,0,0.580608,0,0.666667,1,0.333333,0,0,0,1,0.75,0.125,0.0555556,0.833333,0.583333,1,0.285714,0.277778,25.31,1.15,0.8307,23.76
0,0.8,0.2,0.5,0.5,0,1,0,0.460076,1,1,0.666667,1,1,1,1,1,0.75,0.1875,0.111111,0.583333,0.75,1,0.371429,0.0777778,31.62,0.87,0.79,22.66
0,0.8,0.2,0.5,0.5,0,1,0,0.463878,1,1,1,1,0,1,1,1,0.75,0.1875,0.111111,0.583333,0.75,1,0.242857,0.333333,32.64,0.87,0.79,22.61
0,0.9,0.1,0.75,0.25,0,1,0,0.501901,1,1,0.666667,0.666667,0,1,1,0.5,0.75,0.625,0.666667,0,0,0,0.428571,0.166667,29.4,0.804,0.818,19.3
0.7,0.3,0,0.7,0.3,0,1,0,0.536122,1,1,0.666667,0.666667,0,1,1,0.5,0.75,0.75,0.444444,0,0,1,0.285714,0.111111,25.43,0.758,0.71,14
0.3,0.7,0.5,0.5,0,0,1,0,0.48289,1,1,0.666667,0.666667,0,0,0,1,0.75,0.125,0.0555556,0.666667,0.666667,1,0.285714,0.111111,30.3,0.79,0.755,18
0.3,0.7,0.5,0.5,0,0,1,0,0.48289,1,1,0.666667,0.666667,1,0,0,1,0.75,0.125,0.0555556,0.666667,0.666667,1,0.285714,0.111111,30.2,0.82,0.786,19.3
0.3,0.7,0.5,0.5,0.5,0,1,0,0.479087,0,1,0.666667,0.666667,0,0,0,1,0.75,0.125,0.111111,0.666667,0.666667,1,0.285714,0.111111,30.23,0.732,0.73,16.23
0.3,0.6,0.1,0.5,0.5,0,1,0,0.475285,0,1,0.666667,0.666667,0,0,0,1,0.75,0.125,0.111111,0.666667,0.666667,1,0.285714,0.111111,31.8,0.79,0.78,19.5
0.3,0.6,0.1,0.5,0.5,0,1,0,0.475285,0,1,0.666667,0.666667,1,0,0,1,0.75,0.125,0.111111,0.666667,0.666667,1,0.285714,0.111111,32.5,0.89,0.82,23.6
0,0.75,0.25,0.6,0.4,0,1,0,0.471483,1,1,0.666667,0.666667,1,0,0,0.5,1,0.5,0.333333,0,0,1,0.285714,0.0777778,30.56,0.88,0.8,21.6